Timestamp,MPU1_Accel_X,MPU1_Accel_Y,MPU1_Accel_Z,MPU1_Gyro_X,MPU1_Gyro_Y,MPU1_Gyro_Z,MPU2_Accel_X,MPU2_Accel_Y,MPU2_Accel_Z,MPU2_Gyro_X,MPU2_Gyro_Y,MPU2_Gyro_Z,Temp_C,Temp_F,Humidity,Gas_Analog,Gas_Digital
2026-07-18T17:56:56.586Z,6372,2576,17084,1924,-1106,527,4220,1768,17684,281,-3066,1028,26.09,78.962,68,226,1
2026-07-18T17:56:56.763Z,3720,788,16280,2030,-442,-392,4636,808,14760,164,-453,-105,26.1,78.98,67.99,227,1
2026-07-18T17:56:57.239Z,3792,836,17704,1941,-133,-75,4396,860,16156,103,-46,225,26.09,78.962,67.97,225,1
2026-07-18T17:56:57.667Z,3384,608,17536,1968,-71,-317,4364,592,15544,99,61,-42,26.1,78.98,67.96,225,1
2026-07-18T17:56:58.022Z,3484,536,17636,1935,-67,-330,4516,616,15584,76,61,-6,26.09,78.962,67.92,225,1
2026-07-18T17:56:58.264Z,3560,576,17464,1999,21,-341,4392,660,15596,95,66,-31,26.1,78.98,67.89,225,1
2026-07-18T17:56:58.804Z,3576,548,17468,1978,-49,-318,4416,640,15672,86,94,-48,26.07,78.926,67.85,223,1
2026-07-18T17:56:58.986Z,3548,576,17540,2006,-17,-325,4456,580,15672,124,64,-32,26.07,78.926,67.83,225,1
2026-07-18T17:56:59.521Z,3516,536,17556,2023,-15,-316,4416,540,15612,77,100,22,26.09,78.962,67.83,225,1
2026-07-18T17:57:00.182Z,3568,572,17488,1984,-19,-356,4472,580,15588,61,76,-47,26.09,78.962,67.83,226,1
2026-07-18T17:57:00.422Z,3484,636,17428,2001,-25,-379,4464,604,15444,68,119,-44,26.09,78.962,67.86,225,1
2026-07-18T17:57:00.665Z,2736,588,18600,2197,-996,-188,4384,696,16012,161,-93,177,26.09,78.962,67.99,225,1
2026-07-18T17:57:00.963Z,4300,752,17524,1879,756,-760,5024,852,15552,-52,579,-464,26.09,78.962,67.97,225,1
2026-07-18T17:57:01.143Z,3332,732,18224,2550,1403,-2311,4164,716,16284,310,1440,-2098,26.1,78.98,68,225,1
2026-07-18T17:57:01.321Z,768,412,19068,2332,2867,-135,2188,324,16992,330,3203,141,26.09,78.962,67.99,225,1
2026-07-18T17:57:01.442Z,992,568,17860,2131,492,-332,1876,436,16056,185,665,-4,26.09,78.962,67.97,223,1
2026-07-18T17:57:01.563Z,808,700,17704,1820,-968,-382,1796,468,16040,-48,-890,-61,26.1,78.98,67.99,225,1
2026-07-18T17:57:01.802Z,-3844,1176,15296,1721,-5610,-536,-3392,532,14724,114,-5913,-146,26.1,78.98,67.97,228,1
2026-07-18T17:57:02.043Z,620,972,17580,1647,-7269,-1799,1456,836,15904,4,-6761,-1419,26.09,78.962,67.92,225,1
2026-07-18T17:57:02.286Z,-4424,932,17756,3025,3814,-699,-3360,460,15724,892,4039,-528,26.09,78.962,67.89,226,1
2026-07-18T17:57:02.527Z,-4572,468,16592,2150,-514,-599,-3696,188,15184,233,-459,-340,26.09,78.962,67.88,227,1
2026-07-18T17:57:02.764Z,-8508,1068,14024,2315,3643,-455,-9008,208,14048,144,3708,-197,26.07,78.926,67.85,225,1
2026-07-18T17:57:03.061Z,-5552,572,15200,1591,-6403,-680,-5200,44,14316,86,-7001,-260,26.07,78.926,67.83,227,1
2026-07-18T17:57:03.542Z,-5552,796,15848,1938,7184,755,-4448,364,14340,-390,7636,1006,26.09,78.962,67.82,227,1
2026-07-18T17:57:03.962Z,-8540,852,14604,2486,3222,-517,-7804,172,13724,378,3383,-282,26.09,78.962,67.82,227,1
2026-07-18T17:57:04.382Z,964,1072,18500,2334,-920,-2006,908,876,17748,428,-1021,-1836,26.1,78.98,67.82,227,1
2026-07-18T17:57:04.568Z,-6828,956,16328,1978,-10299,-742,-6184,356,15220,686,-10863,-358,26.09,78.962,67.85,228,1
2026-07-18T17:57:04.922Z,2964,852,17808,2082,13,-644,3484,716,16884,258,-1217,-440,26.09,78.962,67.85,223,1
2026-07-18T17:57:05.463Z,-5136,1204,14960,1522,9087,1133,-5128,732,14280,-858,9219,1421,26.09,78.962,67.83,226,1
2026-07-18T17:57:05.644Z,-7892,1048,16600,2271,-7432,-1207,-8392,1016,15568,549,-6961,-790,26.12,79.016,67.82,228,1
2026-07-18T17:57:05.822Z,-2872,172,17504,1467,-5255,-827,-1680,224,16092,-169,-4895,-458,26.1,78.98,67.8,226,1
2026-07-18T17:57:06.481Z,-5432,972,18140,2147,7612,809,-4440,672,16792,-168,7880,1107,26.12,79.016,67.79,226,1
2026-07-18T17:57:06.782Z,-7172,1480,14136,2842,5794,-718,-6584,904,13320,519,5993,-530,26.1,78.98,67.78,228,1
2026-07-18T17:57:07.141Z,-9008,1112,13976,1371,-1583,-276,-8264,264,13544,-402,-1752,106,26.12,79.016,67.76,220,1
2026-07-18T17:57:07.444Z,-2292,532,16804,1824,-6610,-653,-1532,412,15612,349,-6947,-290,26.13,79.03399999999999,67.75,225,1
2026-07-18T17:57:07.561Z,-2888,1412,16444,2487,10135,-172,-2128,1064,15332,-51,10461,-23,26.1,78.98,67.75,225,1
2026-07-18T17:57:07.866Z,-9808,2672,15328,-135,1332,1714,-7376,768,13460,-1749,1224,2175,26.12,79.016,67.73,226,1
2026-07-18T17:57:08.045Z,-4836,740,14684,1624,-8823,-970,-5360,96,14696,214,-9140,-642,26.12,79.016,67.73,225,1
2026-07-18T17:57:08.404Z,-2168,788,16336,2368,5878,-999,-384,596,15204,-116,7236,-784,26.1,78.98,67.73,226,1
2026-07-18T17:57:08.642Z,-7596,1944,15476,1832,1352,-69,-7400,1284,15296,-148,1494,284,26.12,79.016,67.73,225,1
2026-07-18T17:57:09.059Z,-2540,1188,18632,2017,455,-921,-1368,964,17408,49,519,-638,26.12,79.016,67.73,226,1
2026-07-18T17:57:09.422Z,-10584,1580,13408,2111,390,-657,-9848,764,12416,140,532,-361,26.1,78.98,67.76,225,1
2026-07-18T17:57:09.545Z,632,1248,17892,2339,-5052,-2740,772,868,16864,515,-5193,-2480,26.1,78.98,67.76,223,1
2026-07-18T17:57:10.562Z,-2964,-64,17324,2677,11242,-71,-1988,-312,15740,40,11766,68,26.12,79.016,67.78,226,1
2026-07-18T17:57:10.685Z,-10260,1252,12460,2122,-844,-343,-9768,408,11536,257,-689,-49,26.13,79.03399999999999,67.77,223,1
2026-07-18T17:57:10.923Z,-1788,856,17400,2236,4900,-55,-908,540,15968,40,5231,195,26.12,79.016,67.75,225,1
2026-07-18T17:57:11.104Z,-6340,896,15352,2150,8007,-27,-5828,356,14492,-242,8432,126,26.1,78.98,67.75,226,1
2026-07-18T17:57:12.181Z,-8432,1268,14304,2132,4433,-424,-7768,568,13356,-79,4650,-138,26.12,79.016,67.73,226,1
2026-07-18T17:57:12.542Z,-9792,1152,12844,1865,-2772,-256,-9276,324,12044,144,-2758,56,26.12,79.016,67.72,226,1
2026-07-18T17:57:12.724Z,-7288,1224,15000,1673,-4955,-409,-6604,548,13940,62,-4990,7,26.09,78.962,67.75,227,1
2026-07-18T17:57:13.023Z,-3532,1004,16996,1895,-3327,-291,-2544,556,15620,170,-3458,39,26.12,79.016,67.75,225,1
2026-07-18T17:57:13.321Z,-4640,684,16332,2387,7788,-307,-3984,280,15088,-33,8017,-162,26.12,79.016,67.75,225,1
2026-07-18T17:57:13.444Z,-7532,956,14876,2425,7401,-243,-6700,312,13836,95,7736,-58,26.12,79.016,67.73,226,1
2026-07-18T17:57:13.682Z,-9128,1608,13920,1576,-2805,-74,-8404,808,13028,-159,-2816,302,26.13,79.03399999999999,67.72,221,1
2026-07-18T17:57:13.982Z,-6408,1948,14436,2132,-5547,-332,-5644,1284,13680,655,-4699,33,26.12,79.016,67.69,226,1
2026-07-18T17:57:14.161Z,-2384,1048,17668,2059,20,-337,-1472,720,16468,160,257,-37,26.12,79.016,67.68,224,1
2026-07-18T17:57:14.408Z,-7172,1048,15120,2518,10433,-284,-6696,536,14336,-6,10651,-146,26.1,78.98,67.66,225,1
2026-07-18T17:57:14.521Z,-10120,1644,12632,1572,-1303,-223,-9816,912,12028,-303,-1552,134,26.12,79.016,67.64,225,1
2026-07-18T17:57:14.641Z,-4508,1036,15832,1384,-8924,-340,-3880,540,15112,21,-8971,151,26.09,78.962,67.68,225,1
2026-07-18T17:57:14.821Z,-1636,908,18076,1839,-4542,-505,-676,712,16512,217,-4504,-170,26.09,78.962,67.69,225,1
2026-07-18T17:57:15.003Z,-10024,1160,13528,1836,-5710,-269,-9180,344,12260,260,-5668,58,26.1,78.98,67.71,225,1
2026-07-18T17:57:15.840Z,-8676,1084,14316,2038,-6637,-598,-7968,368,13244,474,-6606,-172,26.09,78.962,67.79,225,1
2026-07-18T17:57:16.262Z,-4732,1236,16148,1651,-4941,-482,-3880,752,14972,23,-5115,-91,26.12,79.016,67.78,226,1
2026-07-18T17:57:16.566Z,-3576,864,17440,2168,2991,-306,-2616,460,15968,31,3170,-91,26.09,78.962,67.8,225,1
2026-07-18T17:57:16.928Z,-6868,1164,15072,1683,-5213,-461,-6096,568,14076,73,-5355,-86,26.1,78.98,67.8,226,1
2026-07-18T17:57:17.222Z,-6520,1060,15800,2411,7884,-180,-5708,552,14728,-3,8189,-33,26.09,78.962,67.85,225,1
2026-07-18T17:57:17.462Z,-11080,1140,13768,2285,6698,-264,-10268,520,12300,-80,6580,16,26.09,78.962,67.82,223,1
2026-07-18T17:57:17.704Z,-11032,1016,11840,1726,-4567,-343,-10444,192,11040,31,-4606,30,26.1,78.98,67.8,225,1
2026-07-18T17:57:18.002Z,-6484,1084,15304,1602,-6717,-521,-5976,560,14436,20,-6863,-147,26.09,78.962,67.78,223,1
2026-07-18T17:57:18.242Z,-5184,1240,16880,1841,-4752,-336,-3952,828,15324,158,-4372,26,26.09,78.962,67.76,225,1
2026-07-18T17:57:18.723Z,-4004,584,17144,1986,2771,-468,-2936,268,15740,-122,2992,-172,26.1,78.98,67.75,225,1
2026-07-18T17:57:19.021Z,-8424,1084,14176,2295,5707,-254,-7644,396,13016,68,6018,-68,26.09,78.962,67.76,225,1
2026-07-18T17:57:19.682Z,-10336,860,12512,1994,4686,-323,-9716,100,11560,-172,4965,-68,26.09,78.962,67.76,225,1
2026-07-18T17:57:19.861Z,-10976,1224,11800,1840,-3576,-371,-10512,328,11088,151,-3657,-43,26.09,78.962,67.75,225,1
2026-07-18T17:57:19.981Z,-9620,1328,13708,1791,-6684,-316,-8912,540,12680,256,-6591,148,26.07,78.926,67.73,225,1
2026-07-18T17:57:20.221Z,-8000,1040,14712,1751,-7749,-374,-7032,336,13472,234,-7633,63,26.09,78.962,67.73,225,1
2026-07-18T17:57:20.341Z,-4184,576,16392,1739,-5861,-406,-3628,360,15280,203,-5707,-34,26.1,78.98,67.72,225,1
2026-07-18T17:57:20.522Z,-3904,1176,16812,2124,2185,-332,-3092,804,15492,102,2284,-58,26.1,78.98,67.72,225,1
2026-07-18T17:57:20.761Z,-9032,1364,13500,1414,-6899,-276,-8568,672,12644,-85,-7198,175,26.09,78.962,67.71,226,1
2026-07-18T17:57:21.421Z,-3844,956,16968,2289,357,-465,-2712,496,15684,280,661,-206,26.07,78.926,67.73,225,1
2026-07-18T17:57:21.781Z,-7388,1004,14940,2549,6529,-496,-6764,436,13736,174,6934,-267,26.07,78.926,67.75,225,1
2026-07-18T17:57:22.081Z,-10608,1100,12356,2055,1206,-318,-10372,304,11816,44,830,-70,26.07,78.926,67.75,223,1
2026-07-18T17:57:22.263Z,-8548,1292,14064,1825,-5769,-445,-7848,620,13228,280,-5832,-93,26.07,78.926,67.75,225,1
2026-07-18T17:57:22.447Z,-5944,1008,16052,1735,-4579,-338,-5112,440,14816,81,-4679,46,26.07,78.926,67.75,223,1
2026-07-18T17:57:22.623Z,-4152,884,16716,2152,4103,-359,-3348,464,15488,-31,4327,-138,26.07,78.926,67.75,223,1
2026-07-18T17:57:23.043Z,-9936,1232,12940,2254,7488,-310,-9228,496,11964,-121,7833,-87,26.09,78.962,67.88,226,1
2026-07-18T17:57:23.283Z,-11252,1344,11668,1938,-1458,-381,-10772,436,10852,158,-1378,-56,26.07,78.926,67.96,225,1
2026-07-18T17:57:23.407Z,-5520,936,16164,1957,-3740,-366,-4704,468,15064,293,-3802,61,26.09,78.962,67.96,226,1
2026-07-18T17:57:23.526Z,-6024,1280,15636,2199,7118,-171,-5136,720,14624,-129,7589,-17,26.05,78.89,68.01,225,1
2026-07-18T17:57:23.640Z,-9712,1316,12600,1597,-6229,-326,-9192,528,11944,53,-6321,90,26.07,78.926,68.11,225,1
2026-07-18T17:57:24.122Z,-7660,1108,14792,1733,-7322,-280,-6844,444,13728,271,-7398,91,26.05,78.89,68.04,223,1
2026-07-18T17:57:24.363Z,-5464,868,15988,1788,-6122,-416,-4656,600,14520,265,-6581,-4,26.07,78.926,68,225,1
2026-07-18T17:57:24.542Z,-3440,896,17176,2101,1467,-347,-2420,512,15856,110,1647,-104,26.07,78.926,67.99,225,1
2026-07-18T17:57:24.662Z,-4152,940,16780,2242,6542,-286,-3276,512,15704,-63,6888,-120,26.07,78.926,68.04,226,1
2026-07-18T17:57:24.843Z,-9260,1260,14844,2556,7530,-385,-7916,404,13392,242,7663,-280,26.07,78.926,68.05,223,1
2026-07-18T17:57:25.024Z,-10376,328,12832,1660,3598,-296,-9800,-556,11824,-443,4056,-65,26.07,78.926,68.04,225,1
2026-07-18T17:57:25.204Z,-6080,1052,15552,1934,-3557,-384,-5588,448,14560,225,-3753,-39,26.06,78.908,68.01,226,1
2026-07-18T17:57:25.380Z,-7528,1408,14612,2264,7968,-261,-7152,800,13384,-95,8061,-96,26.05,78.89,67.96,225,1
2026-07-18T17:57:25.507Z,-11020,1468,12220,2893,753,-425,-10604,632,11072,894,1028,-190,26.05,78.89,67.93,225,1
2026-07-18T17:57:25.682Z,-10740,840,12284,1912,-4722,-238,-10296,40,11168,350,-4732,160,26.06,78.908,67.9,225,1
2026-07-18T17:57:25.866Z,-8388,972,14904,1668,-6645,-393,-7376,348,13456,135,-6559,-16,26.06,78.908,67.88,225,1
2026-07-18T17:57:26.050Z,-5764,872,16036,1725,-4756,-380,-5104,380,14960,111,-4847,7,26.06,78.908,67.87,226,1
2026-07-18T17:57:26.162Z,-8420,972,14080,2408,8107,-183,-7916,240,13284,17,8450,-26,26.06,78.908,67.84,225,1
2026-07-18T17:57:26.582Z,-12004,1268,10408,2093,1351,-296,-11704,260,9784,114,1443,-11,26.05,78.89,67.83,225,1
2026-07-18T17:57:26.762Z,-11368,1400,11212,1855,-3964,-403,-10972,500,10556,156,-3961,-59,26.03,78.854,67.83,225,1
2026-07-18T17:57:27.002Z,-9920,1300,12752,1675,-5724,-258,-9288,540,11884,88,-5840,142,26.05,78.89,67.81,225,1
2026-07-18T17:57:27.125Z,-8384,1068,14160,1560,-5053,-364,-7556,344,13180,-73,-5163,22,26.06,78.908,67.8,223,1
2026-07-18T17:57:27.481Z,-6976,1176,15168,1964,2746,-372,-6140,664,14164,-85,2962,-125,26.07,78.926,67.8,225,1
2026-07-18T17:57:27.661Z,-9512,1032,13792,2277,5083,-396,-8736,352,12648,16,5394,-209,26.05,78.89,67.8,223,1
2026-07-18T17:57:27.842Z,-11100,1304,11784,2178,3040,-230,-10724,392,11120,59,3225,38,26.03,78.854,67.8,225,1
2026-07-18T17:57:28.502Z,-11456,1328,11468,1971,-605,-377,-11044,552,10764,115,-569,-84,26.03,78.854,67.8,226,1
2026-07-18T17:57:28.684Z,-10004,1428,12908,1857,-4078,-325,-9468,656,12024,242,-4102,40,26.06,78.908,67.8,225,1
2026-07-18T17:57:29.102Z,-9136,1140,13792,1572,-6266,-312,-8352,392,12724,88,-6305,151,26.05,78.89,67.8,225,1
2026-07-18T17:57:29.589Z,-6024,904,16004,1833,-4337,-374,-4888,416,14816,138,-4333,4,26.05,78.89,67.8,223,1
2026-07-18T17:57:29.706Z,-5700,1076,16064,2184,4465,-364,-4844,576,14880,16,4742,-103,26.05,78.89,67.8,223,1
2026-07-18T17:57:30.065Z,-7576,1372,14700,2188,6967,-363,-6768,796,13564,-115,7400,-173,26.05,78.89,67.8,225,1
2026-07-18T17:57:30.540Z,-9836,1640,12528,2331,6015,-549,-9648,792,12080,-11,6306,-306,26.06,78.908,67.78,226,1
2026-07-18T17:57:31.020Z,-11320,1192,11496,1994,-50,-400,-11004,244,10744,81,-42,-125,26.05,78.89,67.78,225,1
2026-07-18T17:57:32.221Z,-10204,1288,12260,1797,-3982,-284,-9780,460,11824,125,-4175,37,26.05,78.89,67.78,225,1
2026-07-18T17:57:32.406Z,-9488,2184,13696,1053,-6308,353,-7884,1528,12872,-542,-6216,924,26.03,78.854,67.78,225,1
2026-07-18T17:57:33.121Z,-5548,1092,16140,2042,2205,-342,-4840,624,15112,-15,2261,-103,26.06,78.908,67.77,225,1
2026-07-18T17:57:33.424Z,-6636,1152,15596,2142,5298,-298,-5852,536,14388,-81,5626,-49,26.03,78.854,67.83,225,1
2026-07-18T17:57:33.903Z,-9976,1164,12836,2225,5392,-472,-9316,388,11752,-27,5829,-282,26.06,78.908,67.81,223,1
2026-07-18T17:57:34.082Z,-10944,1252,11740,2097,2433,-297,-10444,404,10908,52,2606,-6,26.05,78.89,67.81,225,1
2026-07-18T17:57:34.562Z,-9244,1248,13164,1726,-5187,-356,-8776,508,12344,146,-5209,39,26.05,78.89,67.81,225,1
2026-07-18T17:57:35.162Z,-8088,1120,15776,1623,-5009,-452,-6452,656,13816,-46,-4348,-42,26.03,78.854,67.81,225,1
2026-07-18T17:57:35.344Z,-6520,1060,15848,2014,1621,-85,-5424,528,14580,-7,2020,188,26.05,78.89,67.8,225,1
2026-07-18T17:57:35.582Z,-10124,988,12340,1778,-3161,-234,-9680,180,11576,82,-3172,125,26.05,78.89,67.8,225,1
2026-07-18T17:57:35.762Z,-8384,1564,13964,1560,-5864,-543,-7844,856,13112,19,-6140,-138,26.02,78.836,67.83,226,1
2026-07-18T17:57:36.901Z,-9320,-84,14036,3698,575,-1291,-9068,-572,12904,1526,680,-1082,26.03,78.854,67.81,225,1
2026-07-18T17:57:37.081Z,-9524,1372,13244,1902,-895,-277,-8932,648,12252,58,-786,-26,26.02,78.836,67.83,225,1
2026-07-18T17:57:37.263Z,-7680,1596,14764,2051,-3449,-537,-6980,1020,13800,387,-3387,-251,26.02,78.836,67.83,226,1
2026-07-18T17:57:37.380Z,-9636,1356,12840,1634,-628,-86,-8984,532,12028,-247,-616,284,26.05,78.89,67.81,223,1
2026-07-18T17:57:38.102Z,-5636,232,17216,2133,1591,-405,-5856,-468,16292,92,2271,-9,26.02,78.836,67.81,225,1
2026-07-18T17:57:38.405Z,-7560,1220,14868,2079,497,-597,-6912,600,13780,99,483,-302,26.02,78.836,67.83,225,1
2026-07-18T17:57:38.884Z,-6784,1116,15328,1874,-2179,-344,-6044,528,14284,102,-2124,-13,26.03,78.854,67.83,223,1
2026-07-18T17:57:39.123Z,-5832,1156,15880,1999,-663,-341,-5032,672,14804,91,-578,-50,26.02,78.836,67.84,225,1
2026-07-18T17:57:39.542Z,-4640,928,16624,1859,-1074,-396,-3644,468,15364,42,-967,-79,26.05,78.89,67.83,223,1
2026-07-18T17:57:39.667Z,-6780,1228,15360,1913,-354,-280,-5984,568,14244,35,-275,35,26.03,78.854,67.84,226,1
2026-07-18T17:57:39.904Z,-5316,960,16196,2067,3920,-298,-4416,572,14956,-66,4085,11,26.03,78.854,67.84,225,1
2026-07-18T17:57:40.082Z,-7664,1224,14616,1807,-1306,-362,-6952,564,13680,-31,-1242,-46,26.02,78.836,67.84,225,1
2026-07-18T17:57:40.501Z,-4988,1420,16172,1991,900,-482,-4236,892,14864,-29,968,-190,26.05,78.89,67.83,225,1
2026-07-18T17:57:40.741Z,-4636,1172,16232,2291,2521,-560,-3888,748,14992,206,2727,-342,26.03,78.854,67.83,226,1
2026-07-18T17:57:40.980Z,-5748,944,15608,1798,1217,-376,-5040,412,14528,-176,1361,-87,26.03,78.854,67.83,225,1
2026-07-18T17:57:41.345Z,-4828,756,16792,1782,-1702,-143,-3844,312,15464,16,-1757,151,26.05,78.89,67.83,226,1
2026-07-18T17:57:41.639Z,-3600,1136,16068,1751,-1145,-288,-2784,732,14836,-112,-1009,8,26.03,78.854,67.83,225,1
2026-07-18T17:57:42.183Z,-4616,1216,16492,2143,1491,-340,-3848,768,15160,117,1643,-53,26.05,78.89,67.83,225,1
2026-07-18T17:57:42.304Z,-6000,1280,16200,2251,1151,-585,-5140,936,15016,218,1543,-309,26.01,78.818,67.89,225,1
2026-07-18T17:57:42.722Z,-4276,1260,16260,1911,-5661,-530,-3780,832,15316,323,-5802,-152,26.03,78.854,67.9,225,1
2026-07-18T17:57:43.502Z,-3336,716,17652,1953,-2539,-428,-2040,492,16040,173,-2384,-139,26.03,78.854,67.9,225,1
2026-07-18T17:57:43.682Z,-3016,1664,16716,2016,2863,-973,-1904,1252,15540,-53,3089,-782,26.05,78.89,67.9,223,1
2026-07-18T17:57:44.101Z,-5856,1144,16560,1628,2978,-243,-5104,788,15820,-480,2707,-52,26.02,78.836,67.94,225,1
2026-07-18T17:57:44.701Z,-5840,676,16452,2043,969,-218,-4976,236,15232,127,1240,61,26.02,78.836,67.94,225,1
2026-07-18T17:57:44.821Z,-6516,1500,15348,1936,-4148,-512,-5692,984,14140,279,-4168,-132,26.02,78.836,67.94,223,1
2026-07-18T17:57:45.061Z,-6092,1392,15008,1962,2996,-316,-5316,880,13928,-105,3160,-42,26.01,78.818,67.93,223,1
2026-07-18T17:57:45.302Z,-7480,796,14524,1730,-1910,-174,-6948,184,13688,-85,-1957,176,26.02,78.836,67.94,226,1
2026-07-18T17:57:45.421Z,-4536,684,16684,2032,-1012,-328,-3572,276,15436,226,-862,-55,26.02,78.836,67.93,226,1
2026-07-18T17:57:45.668Z,-5748,1080,15964,2104,592,-261,-4916,644,14824,181,716,35,26.02,78.836,67.94,225,1
2026-07-18T17:57:46.144Z,-5328,1064,15904,1760,2873,-258,-4544,544,14856,-315,2929,20,26.02,78.836,67.93,225,1
2026-07-18T17:57:46.382Z,-6108,988,16336,2233,-897,-428,-5296,556,14956,363,-789,-86,26.01,78.818,67.93,225,1
2026-07-18T17:57:46.682Z,-6064,992,15732,2152,663,-407,-5248,436,14472,235,721,-146,26.02,78.836,67.94,226,1
2026-07-18T17:57:46.925Z,-3804,1108,16616,1858,-770,-242,-3108,636,15408,67,-708,48,26.03,78.854,67.94,225,1
2026-07-18T17:57:47.046Z,-6660,1328,15432,2410,1120,-414,-5992,804,14504,443,1266,-109,26.01,78.818,67.95,222,1
2026-07-18T17:57:47.167Z,-3540,1012,16452,2251,3300,-457,-2980,748,15444,164,3454,-155,26.01,78.818,67.96,226,1
2026-07-18T17:57:47.525Z,-5484,1212,15856,2164,4097,-94,-4788,720,14556,-38,4369,142,26.02,78.836,67.99,225,1
2026-07-18T17:57:48.002Z,-6188,948,15700,1801,-2114,-179,-5408,440,14528,4,-2108,189,26.02,78.836,67.97,226,1
2026-07-18T17:57:48.422Z,-6656,1032,16756,1475,-3777,429,-4668,908,15148,-260,-2750,931,26.02,78.836,67.97,226,1
2026-07-18T17:57:48.543Z,-2936,168,17160,2197,4056,-757,-1588,-192,15308,94,2783,-681,26.02,78.836,67.99,225,1
2026-07-18T17:57:48.723Z,-6256,844,16936,2212,-8258,-1020,-4428,228,15112,710,-7758,-667,26.02,78.836,67.97,226,1
2026-07-18T17:57:48.902Z,-6088,1180,15784,1432,1557,-50,-5060,672,14528,-599,1623,277,26.02,78.836,67.97,226,1
2026-07-18T17:57:49.025Z,-5896,1408,15688,1852,-3233,-333,-5248,892,14396,160,-3257,17,26.01,78.818,67.96,226,1
2026-07-18T17:57:49.502Z,-3192,672,17588,2159,290,-173,-2072,316,16072,257,487,128,26.03,78.854,67.96,225,1
2026-07-18T17:57:49.922Z,-6660,-4,14588,1995,-1713,443,-6016,-320,12424,230,-1546,774,26.02,78.836,67.94,228,1
2026-07-18T17:57:50.285Z,-5252,1076,15352,2214,-3249,-722,-4384,332,14584,420,-2803,-400,26.02,78.836,67.94,225,1
2026-07-18T17:57:50.464Z,-4588,1008,17072,1825,-2541,-452,-3464,696,15412,112,-2329,-55,26.05,78.89,67.93,225,1
2026-07-18T17:57:51.062Z,-4456,1152,16380,1992,1130,-351,-3636,684,15096,7,1323,-70,26.02,78.836,67.91,224,1
2026-07-18T17:57:51.421Z,-5524,1032,15752,1887,1175,-49,-4696,476,14536,-115,1256,268,26.02,78.836,67.93,225,1
2026-07-18T17:57:51.782Z,-5180,1268,15988,1932,-4814,-312,-4352,796,14892,368,-4841,31,26.02,78.836,67.94,225,1
2026-07-18T17:57:52.021Z,-2668,464,17712,1833,3212,453,-1620,172,15996,-182,3367,715,26.02,78.836,67.96,226,1
2026-07-18T17:57:52.564Z,-4232,940,16756,2672,5316,-965,-3604,608,15456,424,5505,-767,26.03,78.854,67.96,226,1
2026-07-18T17:57:53.105Z,-6404,1456,15480,1994,3372,-59,-5596,832,14720,-117,3553,240,26.03,78.854,67.96,226,1
2026-07-18T17:57:53.758Z,-5152,1236,16288,2151,-1750,-529,-4436,760,15152,253,-1711,-236,26.03,78.854,67.96,225,1
2026-07-18T17:57:54.060Z,-5412,1216,16356,2338,663,-738,-4444,696,15176,361,921,-460,26.01,78.818,67.95,225,1
2026-07-18T17:57:54.481Z,-6688,1100,15676,1955,477,-486,-5892,472,14512,10,560,-239,26.02,78.836,67.97,226,1
2026-07-18T17:57:54.724Z,-6264,1148,15592,1706,-189,-81,-5708,608,14692,-175,-272,238,26.01,78.818,67.97,226,1
2026-07-18T17:57:54.962Z,-6896,892,15364,1609,-562,469,-6024,408,14192,-239,-421,826,26.01,78.818,67.97,225,1
2026-07-18T17:57:55.262Z,-5856,1004,15612,2027,-6927,-789,-5180,476,14404,527,-7134,-469,26.02,78.836,67.97,225,1
2026-07-18T17:57:55.502Z,-3724,468,19224,2547,-6998,-1633,-1464,416,16556,874,-6224,-1329,26.02,78.836,67.97,227,1
2026-07-18T17:57:55.863Z,-9020,2148,17016,1946,-3832,-1049,-7572,1852,15592,27,-4345,-521,26.03,78.854,67.97,226,1
2026-07-18T17:57:56.222Z,-4232,1136,16076,2060,1117,-110,-3312,684,15008,54,1255,173,26.02,78.836,67.99,226,1
2026-07-18T17:57:57.001Z,-4200,984,16372,1932,1808,-412,-3292,580,15252,-103,2004,-81,26.02,78.836,67.97,226,1
2026-07-18T17:57:57.361Z,-5828,840,15808,1760,165,-240,-4996,308,14572,-176,227,74,26.02,78.836,67.97,225,1
2026-07-18T17:57:57.841Z,-5412,1124,16036,2224,1607,-123,-4524,632,14816,179,1783,101,26.02,78.836,67.96,225,1
2026-07-18T17:57:57.966Z,-3764,952,16764,2076,-108,-216,-2964,544,15492,227,26,109,26.01,78.818,67.96,226,1
2026-07-18T17:57:58.082Z,-4968,960,16372,2034,133,-352,-4092,536,15120,138,169,-19,26.01,78.818,67.95,225,1
2026-07-18T17:57:58.202Z,-5052,988,16408,1953,-66,-243,-4244,528,14988,38,25,49,26.01,78.818,67.95,225,1
2026-07-18T17:57:58.682Z,-3140,760,17284,2023,-1075,-577,-2208,404,15816,194,-1041,-274,26.02,78.836,67.96,226,1
2026-07-18T17:57:58.802Z,-5488,1628,14868,1562,-2529,244,-4880,1244,14296,-263,-2657,703,26.02,78.836,67.97,225,1
2026-07-18T17:57:59.101Z,-2632,808,14068,1159,2033,1836,-3256,656,14804,-731,1351,2222,26.02,78.836,68,223,1
2026-07-18T17:57:59.221Z,-4260,1128,13660,1189,-1090,643,-3516,888,13048,-643,-899,1007,26.01,78.818,68.02,225,1
2026-07-18T17:57:59.341Z,-5472,748,15684,1504,723,1076,-4324,12,14752,-301,695,1470,26.01,78.818,68.04,225,1
2026-07-18T17:57:59.518Z,-4472,668,16492,1913,-1169,-220,-3740,320,15288,109,-1100,65,26.02,78.836,68.05,226,1
2026-07-18T17:57:59.764Z,-4896,708,16504,1588,21,218,-4436,180,15252,-251,-59,529,26.02,78.836,68.05,226,1
2026-07-18T17:58:00.002Z,-3188,220,16388,1775,2257,109,-2180,-140,15052,-241,2414,420,26.02,78.836,68.05,223,1
2026-07-18T17:58:00.241Z,-6224,808,13940,1149,-3201,1033,-5656,264,12124,-337,-3795,1362,26.01,78.818,68.05,227,1
2026-07-18T17:58:00.421Z,-1604,1352,19284,3226,6006,-1766,276,376,17512,779,6968,-1620,26.02,78.836,68.05,226,1
2026-07-18T17:58:00.541Z,-6664,868,16280,1763,-5437,-778,-6236,428,15104,151,-5634,-432,26.01,78.818,68.07,225,1
2026-07-18T17:58:00.665Z,-7196,1188,15792,2331,-1124,-481,-6096,520,14448,448,-878,-256,26.01,78.818,68.08,225,1
2026-07-18T17:58:00.901Z,256,480,18040,2032,-1008,-175,1236,404,16564,189,-1232,127,26.01,78.818,68.11,226,1
2026-07-18T17:58:01.205Z,-6472,1296,15704,2212,1303,-494,-5844,716,14428,201,1368,-252,26.01,78.818,68.11,225,1
2026-07-18T17:58:01.503Z,-6536,1312,15404,1959,-2966,-280,-5772,660,14392,219,-2931,71,26.01,78.818,68.11,225,1
2026-07-18T17:58:01.683Z,-4416,952,16524,1810,-4958,-583,-3608,608,15308,114,-4987,-176,26.02,78.836,68.11,225,1
2026-07-18T17:58:01.803Z,-2816,1048,17020,2105,-4020,-827,-1964,712,15640,412,-3999,-492,26.03,78.854,68.1,226,1
2026-07-18T17:58:02.101Z,-5056,552,16328,1962,4724,72,-4128,164,15032,-228,4896,331,26.05,78.89,68.08,227,1
2026-07-18T17:58:02.222Z,-6588,1328,15772,2180,1563,-362,-5936,828,14444,215,1756,-81,26.02,78.836,68.11,226,1
2026-07-18T17:58:02.581Z,-3180,2916,15596,2765,-6152,-920,-1228,2200,14132,1262,-5967,-635,26.03,78.854,68.1,226,1
2026-07-18T17:58:03.062Z,-2032,1080,17124,1447,-739,-1690,-1484,576,16300,-358,-1725,-1411,26.02,78.836,68.1,225,1
2026-07-18T17:58:03.243Z,-1224,344,17764,2267,1352,-737,-244,196,15820,210,1211,-468,26.03,78.854,68.1,226,1
2026-07-18T17:58:03.421Z,-2152,576,17572,2314,2358,-308,-1180,340,16068,227,2589,-82,26.05,78.89,68.1,225,1
2026-07-18T17:58:03.541Z,-4868,916,16580,1880,3865,240,-3696,468,15104,-222,4137,555,26.05,78.89,68.08,226,1
2026-07-18T17:58:04.083Z,-6248,1244,15224,1906,-1502,-350,-5488,652,14192,51,-1385,-67,26.03,78.854,68.08,225,1
2026-07-18T17:58:04.201Z,-3088,776,17036,1951,-3185,-420,-2148,400,15640,174,-3179,-54,26.05,78.89,68.08,226,1
2026-07-18T17:58:04.441Z,-2472,744,17352,1984,-223,-299,-1516,488,15792,76,-174,43,26.03,78.854,68.08,223,1
2026-07-18T17:58:04.982Z,-2648,964,17064,1909,212,-283,-1740,660,15656,-41,342,74,26.03,78.854,68.1,228,1
2026-07-18T17:58:05.222Z,-2588,828,17104,1940,606,-284,-1768,536,15596,11,706,5,26.05,78.89,68.1,225,1
2026-07-18T17:58:05.641Z,-3124,684,17088,1927,19,-375,-2316,384,15584,27,89,-98,26.05,78.89,68.1,227,1
2026-07-18T17:58:06.001Z,-2564,748,17288,2072,-25,-458,-1528,440,15860,150,103,-135,26.03,78.854,68.1,225,1
2026-07-18T17:58:06.124Z,-3436,840,17148,2042,741,-282,-2488,388,15580,65,901,45,26.02,78.836,68.1,225,1
2026-07-18T17:58:06.301Z,-4284,1172,16856,2098,862,-152,-3372,788,15436,150,1053,133,26.02,78.836,68.11,225,1
2026-07-18T17:58:06.481Z,-4532,936,16520,1979,-1851,-233,-3664,500,15172,184,-1770,66,26.02,78.836,68.13,226,1
2026-07-18T17:58:06.781Z,-3360,1036,16944,2008,304,-267,-2300,700,15548,78,498,-3,26.03,78.854,68.11,225,1
2026-07-18T17:58:07.321Z,-3352,988,16724,1934,733,-149,-2452,688,15416,-31,857,152,26.03,78.854,68.13,227,1
2026-07-18T17:58:08.221Z,-3912,12,17232,2447,84,-186,-2712,-64,14688,407,989,63,26.05,78.89,68.13,225,1
2026-07-18T17:58:08.522Z,-3400,892,16852,2072,9,-309,-2656,608,15456,135,66,-25,26.02,78.836,68.14,225,1
2026-07-18T17:58:09.001Z,-2964,916,17168,2080,-316,-590,-2048,532,15692,178,-164,-305,26.02,78.836,68.17,225,1
2026-07-18T17:58:09.187Z,-3156,1000,16836,2075,1087,-446,-2224,724,15396,77,1246,-162,26.03,78.854,68.19,226,1
2026-07-18T17:58:09.306Z,-3468,1156,17176,2183,643,-464,-2884,868,15872,164,626,-194,26.03,78.854,68.19,225,1
2026-07-18T17:58:09.661Z,-3148,980,16992,2043,181,-324,-2252,572,15688,156,264,-51,26.05,78.89,68.17,226,1
2026-07-18T17:58:09.961Z,-3100,1100,17028,2015,312,-369,-2112,620,15720,110,415,-56,26.02,78.836,68.19,226,1
2026-07-18T17:58:10.440Z,-3712,788,16928,1921,-1430,-227,-2756,444,15428,104,-1318,88,26.03,78.854,68.19,225,1
2026-07-18T17:58:10.681Z,-3132,856,17144,1979,181,-394,-2248,552,15676,74,267,-114,26.02,78.836,68.17,225,1
2026-07-18T17:58:10.799Z,-3016,852,17644,2025,641,-116,-2220,556,16028,87,654,147,26.02,78.836,68.17,225,1
2026-07-18T17:58:11.221Z,-5428,1296,15040,1742,-882,-475,-4888,812,14244,-154,-1110,-152,26.02,78.836,68.16,225,1
2026-07-18T17:58:12.301Z,-2308,840,17656,2107,94,-537,-1376,564,16188,131,171,-271,26.02,78.836,68.14,225,1
2026-07-18T17:58:15.481Z,-3060,712,17396,2160,2968,-271,-2168,408,16016,113,3183,-55,26.03,78.854,68.14,225,1
2026-07-18T17:58:15.723Z,-5100,788,16156,2062,5199,42,-4236,384,14840,-163,5457,290,26.03,78.854,68.13,226,1
2026-07-18T17:58:17.399Z,-7072,1024,14444,1785,-24,-423,-6428,464,13412,-140,-26,-100,26.02,78.836,68.11,225,1
2026-07-18T17:58:18.902Z,-4520,1096,16492,2001,-1335,-344,-3556,660,15084,157,-1255,-57,26.03,78.854,68.1,225,1
2026-07-18T17:58:20.158Z,-4460,1124,16496,2061,-418,-364,-3664,668,15220,172,-335,-16,26.02,78.836,68.1,225,1
2026-07-18T17:58:20.880Z,-4544,1000,16544,1878,-3463,-574,-3732,552,15312,165,-3531,-254,26.02,78.836,68.1,227,1
2026-07-18T17:58:21.544Z,-3584,824,16852,1868,1998,109,-2644,408,15492,-153,2181,415,26.01,78.818,68.12,226,1
2026-07-18T17:58:22.620Z,-4356,840,16600,1847,1274,-344,-3460,372,15256,-97,1399,-53,26.02,78.836,68.11,226,1
2026-07-18T17:58:23.044Z,-4420,1052,16720,1987,-616,-351,-3548,672,15280,137,-570,-9,26.02,78.836,68.13,225,1
2026-07-18T17:58:23.706Z,-4100,984,16624,2019,-364,-343,-3212,600,15420,144,-268,-26,26.02,78.836,68.13,225,1
2026-07-18T17:58:24.242Z,-4328,1152,16716,2062,605,-327,-3416,796,15460,52,726,-109,26.03,78.854,68.11,226,1
2026-07-18T17:58:24.481Z,-4092,852,16708,1933,-679,-361,-3320,480,15492,56,-597,-37,26.03,78.854,68.13,227,1
2026-07-18T17:58:24.962Z,-3708,820,16960,2072,-1478,-418,-2764,492,15608,243,-1389,-79,26.02,78.836,68.13,225,1
2026-07-18T17:58:25.387Z,-3432,784,16636,1976,1520,-524,-2588,436,15216,-74,1574,-203,26.02,78.836,68.14,225,1
2026-07-18T17:58:25.861Z,-4316,808,16340,1907,928,-348,-3500,388,14952,-45,1053,-46,26.03,78.854,68.14,226,1
2026-07-18T17:58:26.224Z,-3636,900,16628,1928,-478,-320,-2708,556,15300,61,-412,-52,26.05,78.89,68.13,225,1
2026-07-18T17:58:26.405Z,-3608,868,16820,1970,-223,-347,-2800,480,15380,38,-159,-35,26.03,78.854,68.14,223,1
2026-07-18T17:58:27.421Z,-3684,1012,16784,1971,-622,-332,-2832,696,15412,61,-516,-63,26.02,78.836,68.14,225,1
2026-07-18T17:58:28.562Z,-2992,64,17228,1899,1811,92,-2028,-288,15772,16,1849,349,26.02,78.836,68.03,226,1
2026-07-18T17:58:28.982Z,-3056,580,17344,1990,-429,-277,-2128,264,15812,128,-377,24,26.02,78.836,68.01,226,1
2026-07-18T17:58:30.005Z,-2816,680,18004,1844,-5712,-755,-1384,152,15592,292,-5474,-425,26.02,78.836,67.99,225,1
2026-07-18T17:58:30.302Z,-2768,892,17100,1973,458,-211,-1776,528,15696,71,533,70,26.02,78.836,67.96,226,1
2026-07-18T17:58:30.666Z,-2760,876,17120,2016,-171,-382,-1900,608,15688,122,-55,-38,26.01,78.818,67.93,225,1
2026-07-18T17:58:30.905Z,-2456,680,17304,1820,-2096,-517,-1476,472,15740,26,-2076,-155,26.03,78.854,67.94,226,1
2026-07-18T17:58:31.801Z,-2128,596,17936,2230,2901,-569,-1572,444,16492,84,2948,-309,26.03,78.854,67.93,225,1
2026-07-18T17:58:33.244Z,-556,720,16896,1763,-5338,-1221,-252,336,15932,93,-5928,-908,26.03,78.854,67.93,225,1
2026-07-18T17:58:33.545Z,-580,656,17744,2034,1847,-89,440,456,16080,-13,2017,197,26.03,78.854,67.91,223,1
2026-07-18T17:58:34.203Z,-1004,652,17700,1904,76,-397,16,436,16044,15,160,-100,26.03,78.854,67.91,225,1
2026-07-18T17:58:35.342Z,-3512,564,16984,1914,1435,-113,-2460,232,15396,-52,1528,137,26.03,78.854,67.9,226,1
2026-07-18T17:58:35.643Z,-2864,764,16988,1875,-317,-67,-2012,304,15668,11,-273,196,26.05,78.89,67.9,225,1
2026-07-18T17:58:41.581Z,-2380,732,17044,2037,-247,-445,-1556,500,15664,89,-182,-155,26.03,78.854,67.9,223,1
2026-07-18T17:58:42.539Z,-1724,740,17688,2193,1025,-174,-780,452,16152,237,1188,97,26.03,78.854,67.9,223,1
2026-07-18T17:58:43.562Z,-2492,704,17160,1891,-816,-253,-1456,404,15672,55,-697,76,26.03,78.854,67.9,225,1
2026-07-18T17:58:44.102Z,-2520,816,17364,1990,-650,-154,-1536,516,15804,67,-531,102,26.03,78.854,67.9,225,1
2026-07-18T17:58:44.461Z,-3500,620,16772,1712,-790,-156,-2516,268,15404,-84,-792,187,26.05,78.89,67.9,225,1
2026-07-18T17:58:44.583Z,-2324,1416,18492,2492,7202,653,-480,1132,16232,282,7319,795,26.03,78.854,67.91,225,1
2026-07-18T17:58:44.881Z,-6472,1136,15464,1582,-5355,-391,-5592,636,13940,35,-5253,31,26.03,78.854,67.91,225,1
2026-07-18T17:58:45.003Z,-6384,-472,15928,1396,-7030,-412,-6068,-980,14512,25,-7651,21,26.03,78.854,67.9,225,1
2026-07-18T17:58:45.301Z,-516,824,17424,1942,-5311,-999,164,732,16164,305,-5163,-633,26.03,78.854,67.9,225,1
2026-07-18T17:58:45.662Z,-1732,1400,16376,2191,6236,-274,-692,1024,14920,-49,6448,-78,26.05,78.89,67.91,225,1
2026-07-18T17:58:46.081Z,-5552,1076,15620,2014,3199,-172,-4868,532,14600,-99,3309,94,26.06,78.908,67.93,225,1
2026-07-18T17:58:46.447Z,-1688,992,17400,2336,1488,-965,-412,652,15544,263,1718,-627,26.06,78.908,67.91,223,1
2026-07-18T17:58:46.562Z,-5592,1276,15312,2178,-3014,-735,-4976,768,13992,405,-3010,-419,26.05,78.89,67.93,226,1
2026-07-18T17:58:46.805Z,-752,408,17868,1855,-5667,-679,8,236,16396,255,-5789,-298,26.06,78.908,67.94,225,1
2026-07-18T17:58:47.161Z,-8036,552,14552,1830,-2596,-305,-7424,-64,13484,123,-2655,71,26.05,78.89,67.93,225,1
2026-07-18T17:58:47.344Z,-3928,1336,16904,1520,-6600,-669,-3172,932,16016,15,-6205,-231,26.06,78.908,67.91,225,1
2026-07-18T17:58:47.582Z,-1616,708,17944,1947,1374,-718,-484,616,16348,-102,1480,-414,26.07,78.926,67.91,225,1
2026-07-18T17:58:47.943Z,-3620,1152,16940,1993,-301,-298,-2816,700,15584,108,-221,6,26.07,78.926,67.89,223,1
2026-07-18T17:58:48.181Z,-1932,864,17368,2473,6437,-181,-1236,608,16024,154,6753,9,26.07,78.926,67.89,225,1
2026-07-18T17:58:49.321Z,-4760,1052,16228,2316,4885,-185,-3888,640,14820,109,5165,38,26.07,78.926,67.88,226,1
2026-07-18T17:58:50.039Z,-2224,692,16752,962,-4228,30,-1580,520,15532,-760,-4352,472,26.07,78.926,67.85,226,1
2026-07-18T17:58:50.286Z,-3304,1284,15788,1842,4564,8,-2828,888,14620,-327,4716,248,26.07,78.926,67.85,225,1
2026-07-18T17:58:50.642Z,-5688,688,15892,1970,1704,269,-4712,228,14632,4,1974,559,26.07,78.926,67.83,223,1
2026-07-18T17:58:50.822Z,-2120,1080,17348,2209,-3314,-1091,-1236,864,16144,384,-3237,-824,26.07,78.926,67.82,225,1
2026-07-18T17:58:50.937Z,-3176,196,18424,1714,-131,-235,-2420,-252,17036,-161,-334,119,26.09,78.962,67.8,225,1
2026-07-18T17:58:51.185Z,-4668,940,16220,2324,3930,-381,-3736,572,14908,189,4356,-146,26.1,78.98,67.8,223,1
2026-07-18T17:58:51.485Z,-4504,384,17084,1492,-6343,-405,-3560,28,15548,-38,-6462,21,26.09,78.962,67.79,225,1
2026-07-18T17:58:52.384Z,-3644,956,16928,2316,6102,-342,-2828,580,15572,75,6311,-166,26.09,78.962,67.79,225,1
2026-07-18T17:58:52.682Z,-4584,948,16836,1657,-4399,-711,-3704,552,15560,12,-4388,-333,26.09,78.962,67.79,225,1
2026-07-18T17:58:53.282Z,-3592,456,16796,1777,-5219,-544,-2928,156,15640,227,-5532,-190,26.07,78.926,67.79,225,1
2026-07-18T17:58:53.525Z,-644,672,18272,1970,-3714,-761,700,492,16396,257,-3291,-430,26.1,78.98,67.78,225,1
2026-07-18T17:58:54.301Z,-5132,584,15912,1954,3927,510,-4380,120,14788,-148,4241,793,26.09,78.962,67.78,225,1
2026-07-18T17:58:54.664Z,-5864,1376,17172,1816,-7290,81,-4180,944,14804,313,-6845,500,26.09,78.962,67.78,225,1
2026-07-18T17:58:55.142Z,-1204,312,21244,2542,-2038,-278,2252,232,16756,685,-2389,45,26.09,78.962,67.76,226,1
2026-07-18T17:58:55.441Z,-4536,1020,16764,2014,7532,480,-3824,648,15428,-231,7604,738,26.1,78.98,67.76,225,1
2026-07-18T17:58:55.739Z,-6196,1084,14460,2012,-2306,-657,-5772,544,13732,205,-2293,-331,26.1,78.98,67.76,225,1
2026-07-18T17:58:56.763Z,-764,732,18236,2379,-1665,-776,532,728,16496,571,-1671,-508,26.09,78.962,67.76,225,1
2026-07-18T17:58:57.004Z,-1008,780,16864,1387,-2229,-932,-348,400,15328,-369,-1981,-592,26.09,78.962,67.82,224,1
2026-07-18T17:58:57.721Z,-1960,332,17344,1989,874,-621,-984,-8,15648,18,1041,-335,26.09,78.962,67.85,225,1
2026-07-18T17:58:58.503Z,-4612,716,16352,2183,3806,-342,-3744,284,14848,69,3921,-161,26.09,78.962,67.83,225,1
2026-07-18T17:58:58.683Z,-4596,2036,16176,2152,-4897,-291,-3908,1536,15012,537,-4673,40,26.09,78.962,67.85,223,1
2026-07-18T17:58:58.862Z,-2764,1076,17128,1903,-5483,-1520,-2224,820,16040,201,-4809,-1196,26.12,79.016,67.88,226,1
2026-07-18T17:58:59.164Z,-1564,1192,16956,2416,2599,-326,-1340,964,15784,368,2349,-55,26.12,79.016,67.88,223,1
2026-07-18T17:58:59.521Z,-3756,1532,16392,2379,2602,-968,-3144,936,15352,303,3120,-771,26.12,79.016,67.89,225,1
2026-07-18T17:59:01.502Z,-5948,640,15776,2468,4326,-692,-5060,112,14532,229,4546,-525,26.09,78.962,67.91,225,1
2026-07-18T17:59:02.281Z,-8052,928,16144,1508,-9972,-691,-6380,732,14532,154,-8996,-248,26.09,78.962,67.91,223,1
2026-07-18T17:59:02.882Z,-6356,1348,15336,2099,8119,102,-5636,688,14128,-279,8597,283,26.09,78.962,67.88,223,1
2026-07-18T17:59:03.302Z,-9248,1336,13040,1601,-2958,-336,-8668,624,12184,-158,-3079,-6,26.09,78.962,67.91,225,1
2026-07-18T17:59:03.603Z,-6284,928,15100,2143,7459,35,-5448,440,14248,-163,7754,208,26.09,78.962,67.88,223,1
2026-07-18T17:59:03.902Z,-2328,500,15968,1810,-8181,-625,-2824,224,15600,351,-8492,-204,26.1,78.98,67.88,223,1
2026-07-18T17:59:04.680Z,-7036,236,14112,1789,7120,262,-6668,-344,13864,-497,7443,506,26.1,78.98,67.86,223,1
2026-07-18T17:59:04.860Z,-5452,1096,15212,1490,-9184,-557,-4808,620,14360,111,-9552,-120,26.1,78.98,67.88,223,1
2026-07-18T17:59:05.103Z,796,308,18488,1955,1637,192,1344,228,17212,-10,1725,449,26.12,79.016,67.88,223,1
2026-07-18T17:59:05.459Z,-740,1704,16996,1935,-583,-449,-204,1528,15600,73,-276,-161,26.1,78.98,67.88,223,1
2026-07-18T17:59:06.240Z,-2584,460,18348,2436,3612,-114,-1772,132,16884,366,3711,94,26.1,78.98,67.85,225,1
2026-07-18T17:59:06.537Z,-92,1248,14700,2147,6495,-69,-3124,636,16028,-127,3330,-21,26.1,78.98,67.83,226,1
2026-07-18T17:59:06.956Z,-1832,464,17616,2363,7127,-985,-916,328,15588,-56,7758,-795,26.1,78.98,67.82,225,1
2026-07-18T17:59:08.404Z,-5800,1404,16652,2583,8902,-129,-4640,904,15488,178,9355,27,26.1,78.98,67.8,223,1
2026-07-18T17:59:09.242Z,-9992,948,13240,419,-1325,1491,-9904,188,12272,-1053,-1386,2017,26.12,79.016,67.79,225,1
2026-07-18T17:59:10.018Z,-292,936,17208,1146,-5477,434,340,808,16356,-354,-5853,877,26.12,79.016,67.78,225,1
2026-07-18T17:59:10.258Z,-6936,1172,16232,1576,7647,659,-5728,512,14952,-703,8019,924,26.13,79.03399999999999,67.78,223,1
2026-07-18T17:59:11.338Z,-6604,1728,15236,2569,4627,-294,-6044,1204,14336,363,4794,-110,26.12,79.016,67.76,223,1
2026-07-18T17:59:11.757Z,-2876,1084,17444,2836,8405,-1311,-1976,912,16152,291,8851,-1180,26.09,78.962,67.85,223,1
2026-07-18T17:59:12.058Z,-1584,900,17980,2101,-5970,-239,-616,704,16396,567,-5940,146,26.06,78.908,67.88,223,1
2026-07-18T17:59:12.539Z,-3304,980,15396,2758,9472,-1008,-2880,504,14608,163,9855,-899,26.07,78.926,67.89,223,1
2026-07-18T17:59:13.078Z,-6176,2224,15076,861,-7974,-44,-5644,1372,14408,-453,-7952,370,26.07,78.926,67.91,223,1
2026-07-18T17:59:13.321Z,144,276,18136,1653,-3357,90,1132,44,16648,-11,-3288,462,26.07,78.926,67.91,223,1
2026-07-18T17:59:14.100Z,-3836,596,16816,1283,-6299,-642,-2496,180,15328,-268,-6335,-219,26.09,78.962,67.92,223,1
2026-07-18T17:59:14.997Z,148,752,16404,1954,-1027,-889,-56,232,16220,73,-2252,-655,26.07,78.926,67.95,226,1
2026-07-18T17:59:15.901Z,-2096,964,17104,2268,5450,-711,-1168,744,16004,-36,5920,-466,26.07,78.926,67.95,225,1
2026-07-18T17:59:16.077Z,-6116,1176,14744,1402,-5080,-498,-5524,584,13836,-212,-5443,-129,26.07,78.926,67.95,223,1
2026-07-18T17:59:16.500Z,-6708,1548,15032,1655,4379,546,-5876,852,14224,-453,4551,833,26.06,78.908,67.94,223,1
2026-07-18T17:59:17.099Z,-2592,1588,17224,1712,-5270,-1139,-1040,1188,15512,60,-4934,-764,26.06,78.908,67.97,226,1
2026-07-18T17:59:17.878Z,-3928,860,16504,2025,4026,-297,-3036,496,15144,-130,4280,-35,26.06,78.908,67.97,225,1
2026-07-18T17:59:18.002Z,-4508,616,16452,1632,-853,-286,-3764,176,15272,-190,-763,49,26.05,78.89,67.99,224,1
2026-07-18T17:59:18.301Z,-4940,1044,16188,1940,96,-522,-4180,648,14996,-9,187,-232,26.05,78.89,68.01,223,1
2026-07-18T17:59:18.478Z,-4636,976,16156,1935,1082,-209,-3816,580,14856,-42,1133,55,26.05,78.89,68.04,223,1
2026-07-18T17:59:18.720Z,-3520,884,17088,1947,-2172,-491,-2272,504,15572,167,-2207,-154,26.05,78.89,68.1,225,1
2026-07-18T17:59:18.901Z,-2388,732,17500,2016,-2718,-320,-1368,452,15948,293,-2536,60,26.06,78.908,68.1,223,1
2026-07-18T17:59:19.022Z,-3620,1124,16956,2287,4757,-569,-2704,732,15568,64,5023,-311,26.05,78.89,68.08,225,1
2026-07-18T17:59:19.257Z,-6556,1056,15580,1658,-3843,295,-5728,468,14460,-32,-3743,680,26.05,78.89,68.07,225,1
2026-07-18T17:59:19.501Z,-1324,1036,17700,2174,1975,-520,-388,872,16236,167,2133,-264,26.06,78.908,68.05,225,1
2026-07-18T17:59:20.459Z,-4288,556,16784,2188,-5702,-1178,-3448,188,15464,532,-5706,-826,26.05,78.89,68.05,225,1
2026-07-18T17:59:20.759Z,-1332,504,17892,1982,-2937,-321,-184,300,16104,290,-2813,-2,26.05,78.89,68.04,225,1
2026-07-18T17:59:21.121Z,-3856,1032,16420,1744,-4426,-636,-3012,596,15248,101,-4405,-254,26.05,78.89,68.03,223,1
2026-07-18T17:59:21.659Z,-1620,1028,17284,1807,-2308,79,-768,732,15804,66,-2244,446,26.02,78.836,68.03,225,1
2026-07-18T17:59:21.780Z,-320,288,17048,2118,832,-145,-868,-48,16660,103,661,182,26.05,78.89,68.03,225,1
2026-07-18T17:59:22.021Z,-1576,1444,16824,1784,-946,178,-808,1192,15536,8,-835,499,26.03,78.854,68.04,223,1
2026-07-18T17:59:22.202Z,-1156,-220,17904,2101,-347,-853,-192,-344,16192,228,-362,-520,26.05,78.89,68.03,225,1
2026-07-18T17:59:22.439Z,-1248,1920,16600,1565,-15,362,1312,1504,14848,-349,756,788,26.03,78.854,68.01,225,1
2026-07-18T17:59:22.858Z,-5360,600,17228,2125,-2723,-822,-4468,56,15540,410,-2489,-513,26.03,78.854,68.04,223,1
2026-07-18T17:59:23.158Z,-3260,20,16600,1649,-1802,-452,-3068,264,16312,-59,-723,-55,26.03,78.854,68.1,225,1
2026-07-18T17:59:23.339Z,-3808,500,17060,1714,-1975,-265,-3288,68,15508,-45,-1638,90,26.05,78.89,68.1,223,1
2026-07-18T17:59:23.700Z,-4036,1540,16676,2078,-790,-1048,-2724,1480,14920,115,380,-691,26.05,78.89,68.1,225,1
2026-07-18T17:59:24.001Z,-4088,1576,16564,1712,-647,-511,-3356,1216,15036,-210,-631,-170,26.05,78.89,68.1,225,1
2026-07-18T17:59:24.181Z,-2992,484,14808,2310,7,-433,-4040,-32,15104,479,-673,-191,26.05,78.89,68.11,223,1
2026-07-18T17:59:24.776Z,-4060,996,15464,2076,-1508,-660,-3276,644,14136,223,-1357,-349,26.05,78.89,68.1,225,1
2026-07-18T17:59:25.139Z,1648,1280,17148,1660,359,-151,1672,1096,16648,-150,-438,167,26.06,78.908,68.1,225,1
2026-07-18T17:59:25.438Z,-2916,1256,16764,1986,3512,-225,-2264,956,15512,-166,3527,76,26.05,78.89,68.1,225,1
2026-07-18T17:59:25.619Z,-836,12,16808,1842,2193,1422,704,904,15532,-82,1684,1714,26.05,78.89,68.1,225,1
2026-07-18T17:59:25.978Z,-296,84,17348,1932,3452,689,-476,844,16260,-151,2044,1057,26.03,78.854,68.13,225,1
2026-07-18T17:59:26.101Z,-2160,392,17520,1440,-1104,-225,-1116,-16,15280,-357,-1013,86,26.03,78.854,68.1,225,1
2026-07-18T17:59:26.339Z,-820,1516,16480,1429,-665,243,728,1184,14760,-242,-1160,411,26.02,78.836,68.05,223,1
2026-07-18T17:59:26.579Z,-168,316,18036,1820,612,328,1000,352,16096,-100,863,635,26.02,78.836,68.04,225,1
2026-07-18T17:59:26.823Z,636,984,14240,1920,-1279,1631,-128,476,14840,120,-339,2044,26.05,78.89,68.03,225,1
2026-07-18T17:59:27.059Z,-472,1128,14940,950,3201,3416,-1412,1072,15724,-775,3070,4040,26.05,78.89,68.01,225,1
2026-07-18T17:59:27.658Z,-4036,1496,16820,2147,923,-986,-2892,1020,15424,146,627,-713,26.05,78.89,68,223,1
2026-07-18T17:59:27.838Z,-1404,852,17548,2114,1930,-128,-552,612,16124,102,2392,181,26.05,78.89,68,223,1
2026-07-18T17:59:28.258Z,-456,956,17920,1995,-727,-841,656,812,16240,99,-704,-524,26.03,78.854,68,223,1
2026-07-18T17:59:29.400Z,-2340,656,17488,2105,2274,-482,-1328,396,15756,3,2533,-250,26.03,78.854,68,225,1
2026-07-18T17:59:29.578Z,-2152,988,17132,1947,-1153,-438,-1124,692,15816,85,-1124,-164,26.03,78.854,68,225,1
2026-07-18T17:59:30.058Z,-1832,1068,17592,1988,-256,-492,-1036,772,15920,86,-89,-189,26.03,78.854,68,225,1
2026-07-18T17:59:30.478Z,-2612,832,17104,1957,1268,-511,-1672,604,15708,-49,1359,-215,26.05,78.89,68,225,1
2026-07-18T17:59:30.958Z,-3212,1364,17084,1956,-1952,-365,-2224,1040,15592,147,-1794,2,26.05,78.89,68,223,1
2026-07-18T17:59:31.258Z,-6664,1996,16960,1744,-1187,592,-5460,1380,15552,11,-924,983,26.03,78.854,68.01,223,1
2026-07-18T17:59:31.677Z,1736,672,17784,1898,-3907,-914,2448,540,16188,157,-4315,-595,26.03,78.854,68.03,223,1
2026-07-18T17:59:32.100Z,1100,960,18056,1913,963,509,1796,1016,16616,-10,1049,848,26.03,78.854,68.01,225,1
2026-07-18T17:59:32.455Z,168,156,18548,2385,2878,-718,852,280,17436,162,2841,-504,26.05,78.89,68,223,1
2026-07-18T17:59:33.356Z,-1456,448,18272,2109,4090,210,-516,256,16456,-46,4502,499,26.05,78.89,67.99,223,1
2026-07-18T17:59:33.838Z,-4236,764,16860,2153,1470,-595,-3312,248,15452,126,1705,-328,26.06,78.908,67.99,223,1
2026-07-18T17:59:34.021Z,-3444,776,17100,1843,-617,-355,-2540,404,15620,-30,-518,-37,26.05,78.89,67.99,225,1
2026-07-18T17:59:34.256Z,-2980,724,17080,2010,-1947,-332,-2032,464,15676,199,-1872,-43,26.06,78.908,67.97,223,1
2026-07-18T17:59:35.457Z,-2172,672,17316,2108,3260,-364,-1272,460,15636,-41,3476,-110,26.06,78.908,67.96,225,1
2026-07-18T17:59:35.699Z,-1060,356,17868,2183,-130,-1052,-248,248,16288,233,-106,-805,26.06,78.908,67.96,225,1
2026-07-18T17:59:36.056Z,-4876,1716,15860,1885,6100,25,-3848,1460,14796,-361,5973,316,26.05,78.89,67.97,226,1
2026-07-18T17:59:36.476Z,-3528,752,16944,1727,-3762,-281,-2616,496,15628,58,-3819,141,26.06,78.908,67.96,225,1
2026-07-18T17:59:37.618Z,-1164,1644,17108,1416,-1798,-513,-884,1120,16368,-288,-1643,-244,26.06,78.908,67.96,223,1
2026-07-18T17:59:38.157Z,-1700,836,17712,2068,1882,-168,-792,584,16124,53,2019,127,26.05,78.89,67.94,224,1
2026-07-18T17:59:38.456Z,-1284,712,17564,1966,-2681,-518,-464,504,16084,214,-2675,-221,26.06,78.908,67.94,223,1
2026-07-18T17:59:38.876Z,-5352,1316,16124,1952,4507,9,-4492,828,14788,-282,4831,268,26.05,78.89,67.96,224,1
2026-07-18T17:59:39.656Z,-1336,672,18016,1968,705,-217,-344,452,16660,-2,817,117,26.05,78.89,67.96,223,1
2026-07-18T17:59:40.319Z,-6004,1060,15776,2034,2486,-407,-5284,560,14680,-46,2653,-176,26.05,78.89,67.97,223,1
2026-07-18T17:59:41.638Z,1092,836,18476,2142,-1660,-1429,1952,772,16612,239,-1700,-1189,26.06,78.908,67.97,225,1
2026-07-18T17:59:42.419Z,-7904,1144,15032,2476,5238,-354,-7200,544,14132,239,5468,-135,26.06,78.908,67.97,223,1
2026-07-18T17:59:42.599Z,-3972,1052,17104,1855,-8241,-444,-2772,652,15312,443,-8038,-30,26.06,78.908,67.99,225,1
2026-07-18T17:59:42.839Z,-1768,520,18012,1820,-7756,-550,-832,412,16196,433,-7772,-120,26.07,78.926,68,223,1
2026-07-18T17:59:43.137Z,-7016,768,14992,1532,5207,-237,-6204,196,14084,-716,5296,72,26.05,78.89,68,223,1
2026-07-18T17:59:43.499Z,-7616,708,14628,1721,-5217,-555,-6992,80,13420,139,-5292,-139,26.06,78.908,67.97,223,1
2026-07-18T17:59:43.621Z,-1304,400,16772,1603,-6651,-603,20,-12,14900,-52,-5454,-163,26.07,78.926,67.97,223,1
2026-07-18T17:59:44.220Z,-2708,880,17144,2155,4536,-193,-1988,500,15960,11,4690,24,26.07,78.926,67.96,223,1
2026-07-18T17:59:44.577Z,-7020,840,15156,2183,6016,-157,-6320,188,14092,-82,6286,55,26.07,78.926,68,225,1
2026-07-18T17:59:44.880Z,-6432,1060,15484,1727,-5163,-511,-5648,448,14284,45,-5182,-132,26.09,78.962,67.99,225,1
2026-07-18T17:59:45.782Z,-2124,660,18168,2224,4781,-339,-956,368,16364,-21,5103,-116,26.09,78.962,68,223,1
2026-07-18T17:59:45.901Z,-6456,760,15868,2374,6772,-345,-5288,216,14416,14,7294,-174,26.09,78.962,68.02,223,1
2026-07-18T17:59:46.623Z,-3116,812,17676,2344,-2914,-484,-2188,500,16500,583,-2975,-196,26.09,78.962,68.04,223,1
2026-07-18T17:59:46.859Z,-9688,1472,12644,2085,7220,-797,-9260,724,12192,-312,7324,-614,26.09,78.962,68,223,1
2026-07-18T17:59:48.241Z,-272,1896,19936,2478,-5763,-2334,3820,1884,16640,761,-6802,-1920,26.1,78.98,67.99,223,1
2026-07-18T17:59:49.439Z,-2296,1224,16020,2110,-8984,-1822,-164,1164,14808,699,-8363,-1454,26.1,78.98,67.97,223,1
2026-07-18T17:59:49.861Z,-6740,944,14940,1495,-8236,-372,-6228,580,13644,89,-8504,89,26.09,78.962,67.96,223,1
2026-07-18T17:59:50.401Z,-3916,676,15520,2291,10869,452,-3584,256,14696,-241,11004,628,26.13,79.03399999999999,68.01,225,1
2026-07-18T17:59:51.660Z,-972,1216,17232,1639,-4401,-805,-1048,824,16932,13,-4455,-417,26.12,79.016,68.02,225,1
2026-07-18T17:59:54.000Z,-2696,1024,17752,2054,7350,-81,-1668,860,16388,-290,7766,128,26.12,79.016,67.99,223,1
2026-07-18T17:59:54.359Z,-9344,1316,13052,2160,8749,-577,-8848,508,12148,-282,8987,-443,26.13,79.03399999999999,67.99,225,1
2026-07-18T17:59:54.961Z,-8628,1192,13828,1632,-10586,-354,-8012,516,12820,374,-10833,109,26.14,79.05199999999999,67.96,223,1
2026-07-18T17:59:56.342Z,-184,628,17824,2566,6868,-29,676,516,16704,138,7333,240,26.13,79.03399999999999,67.91,225,1
2026-07-18T17:59:57.002Z,-5232,892,17412,2879,12616,-781,-4148,372,15332,169,13165,-734,26.13,79.03399999999999,67.88,223,1
2026-07-18T17:59:57.781Z,-236,2104,16416,1534,-7246,-1073,304,1360,16776,65,-7432,-620,26.16,79.088,67.87,223,1
2026-07-18T17:59:58.257Z,-7224,1192,14640,2020,10317,-318,-6616,520,13676,-488,10589,-138,26.13,79.03399999999999,67.83,223,1
2026-07-18T17:59:59.457Z,-9552,1132,13208,1553,-5126,-287,-8960,332,12240,-23,-5201,142,26.13,79.03399999999999,67.8,223,1
2026-07-18T18:00:02.522Z,-10336,1192,12220,2042,-1355,-404,-9808,328,11424,215,-1325,-88,26.13,79.03399999999999,67.77,223,1
2026-07-18T18:00:03.179Z,-8984,1276,13704,1592,-7677,-389,-8436,552,12796,123,-7794,40,26.12,79.016,67.78,223,1
2026-07-18T18:00:04.084Z,-8680,1120,13696,2341,6191,-442,-7920,320,12820,11,6506,-244,26.14,79.05199999999999,67.77,222,1
2026-07-18T18:00:04.922Z,-9164,1232,13248,1738,-6760,-427,-8652,496,12416,239,-6888,-23,26.12,79.016,67.8,225,1
2026-07-18T18:00:05.890Z,-852,172,16628,1724,4952,313,208,16,15512,-452,5246,628,26.14,79.05199999999999,67.84,223,1
2026-07-18T18:00:06.365Z,-5636,1036,15036,2898,11909,-531,-5056,596,13940,242,12435,-391,26.13,79.03399999999999,67.9,223,1
2026-07-18T18:00:07.321Z,-8436,1180,16264,574,-13273,577,-6040,832,13588,-612,-12842,1195,26.13,79.03399999999999,67.85,223,1
2026-07-18T18:00:08.165Z,-7308,772,15796,2012,10727,157,-6308,204,14136,-531,11447,354,26.14,79.05199999999999,67.83,223,1
2026-07-18T18:00:08.405Z,-7672,808,14168,1710,-9370,-443,-7108,156,13412,309,-9706,-70,26.14,79.05199999999999,67.81,223,1
2026-07-18T18:00:08.703Z,-1244,964,19748,896,4499,3775,232,948,16564,-885,3562,4109,26.16,79.088,67.83,222,1
2026-07-18T18:00:08.884Z,-2860,1268,15664,1816,-5602,267,-1348,284,14100,209,-5024,516,26.17,79.10600000000001,67.85,223,1
2026-07-18T18:00:09.004Z,-7280,656,14260,2378,4625,686,-7464,848,14204,-4,5211,990,26.17,79.10600000000001,67.8,223,1
2026-07-18T18:00:09.181Z,-4216,976,15984,919,-15009,-733,-3632,632,14576,-119,-15101,-166,26.17,79.10600000000001,67.75,223,1
2026-07-18T18:00:09.361Z,-10096,1112,13732,892,3189,1600,-8340,464,12696,-1143,4029,2103,26.17,79.10600000000001,67.7,223,1
2026-07-18T18:00:09.602Z,-6532,468,16152,2688,13164,-536,-6040,88,14828,-55,13582,-471,26.17,79.10600000000001,67.7,226,1
2026-07-18T18:00:09.962Z,-4892,672,14760,1553,-15374,-514,-4272,232,13832,477,-15576,-22,26.17,79.10600000000001,67.72,225,1
2026-07-18T18:00:10.266Z,-5404,732,16228,1923,5199,-107,-3828,272,14568,-324,6074,182,26.17,79.10600000000001,67.7,225,1
2026-07-18T18:00:10.501Z,-7372,1196,14864,1098,-3233,570,-6980,664,13912,-585,-3324,951,26.17,79.10600000000001,67.71,225,1
2026-07-18T18:00:10.622Z,-3000,1392,17336,2213,9507,471,-2716,1084,15940,-169,9907,631,26.17,79.10600000000001,67.65,225,1
2026-07-18T18:00:10.923Z,-3544,1308,16864,1634,9935,277,-2348,872,15168,-832,10233,504,26.18,79.124,67.65,222,1
2026-07-18T18:00:11.340Z,656,948,18080,1862,6023,196,1932,748,16360,-447,6660,467,26.18,79.124,67.63,223,1
2026-07-18T18:00:11.644Z,-1356,652,16416,2056,10303,-36,-1572,228,15888,-467,10994,215,26.18,79.124,67.6,222,1
2026-07-18T18:00:11.767Z,-8476,1200,13636,1713,-9390,-363,-7892,476,12596,375,-9589,100,26.18,79.124,67.52,223,1
2026-07-18T18:00:12.187Z,-4680,864,16028,1613,-8201,-391,-3988,440,14912,191,-8375,-20,26.18,79.124,67.5,224,1
2026-07-18T18:00:12.665Z,-800,1016,19620,2054,-2148,-1151,-48,1000,17828,63,-2072,-816,26.18,79.124,67.46,223,1
2026-07-18T18:00:13.562Z,-2768,864,15116,669,5584,695,-2992,308,15392,-1417,5343,936,26.17,79.10600000000001,67.47,223,1
2026-07-18T18:00:14.219Z,-4904,1152,14248,1107,-9850,40,-4648,664,13284,-108,-9098,492,26.18,79.124,67.46,225,1
2026-07-18T18:00:14.580Z,440,1440,20112,1768,374,-1490,1604,1164,18776,-249,29,-1187,26.18,79.124,67.44,223,1
2026-07-18T18:00:15.962Z,-2336,668,17740,2036,5607,-362,-1144,176,16636,-205,6121,-93,26.18,79.124,67.42,223,1
2026-07-18T18:00:16.444Z,-5284,1064,16096,1939,5879,-14,-4296,596,14624,-296,6149,259,26.2,79.16,67.42,223,1
2026-07-18T18:00:16.685Z,-7084,668,14732,1628,-1663,157,-6436,60,13572,-170,-1653,567,26.18,79.124,67.39,223,1
2026-07-18T18:00:17.218Z,-752,1404,17016,1970,-5768,-1114,268,1116,16120,376,-5802,-696,26.2,79.16,67.4,223,1
2026-07-18T18:00:18.124Z,-9240,1312,13860,2125,6188,201,-8588,508,12896,-100,6451,377,26.18,79.124,67.38,223,1
2026-07-18T18:00:18.482Z,-5704,964,15564,2013,-10861,-1677,-5056,476,14400,561,-11190,-1268,26.18,79.124,67.39,222,1
2026-07-18T18:00:19.142Z,-616,-180,19756,3037,7882,-799,972,-124,16752,460,8342,-581,26.18,79.124,67.42,223,1
2026-07-18T18:00:19.502Z,-5148,1796,14032,2580,12831,-601,-5092,1208,13908,-28,12348,-534,26.18,79.124,67.47,222,1
2026-07-18T18:00:19.925Z,-9196,1832,14152,1329,-6143,360,-8412,960,14136,-128,-5691,770,26.18,79.124,67.46,223,1
2026-07-18T18:00:20.461Z,-3828,784,17080,2111,7275,-16,-3200,292,15828,-177,7734,140,26.18,79.124,67.51,223,1
2026-07-18T18:00:21.180Z,-9168,1340,12672,1052,-5877,734,-8880,512,12024,-519,-5472,1217,26.17,79.10600000000001,67.58,223,1
2026-07-18T18:00:21.543Z,-6484,748,16168,1708,-8165,-1946,-5684,180,14244,261,-9764,-1617,26.17,79.10600000000001,67.63,223,1
2026-07-18T18:00:21.841Z,-3412,1528,13164,-906,1536,4531,-6168,780,14140,-2328,-1749,4972,26.2,79.16,67.66,223,1
2026-07-18T18:00:22.018Z,-5800,568,17824,550,729,4904,-3832,160,14944,-1152,3057,5302,26.16,79.088,67.74,223,1
2026-07-18T18:00:22.863Z,-2772,1352,19592,2271,4127,-172,-608,1248,16988,46,4381,197,26.16,79.088,67.85,223,1
2026-07-18T18:00:23.220Z,-2468,580,15968,1620,-11473,-1196,-1956,324,15164,336,-11094,-766,26.16,79.088,67.9,223,1
2026-07-18T18:00:23.520Z,-4792,1048,16268,2064,8013,16,-3948,616,15072,-311,8274,275,26.16,79.088,67.83,223,1
2026-07-18T18:00:23.998Z,-5020,1220,16160,1775,6302,216,-3940,600,14904,-455,6505,479,26.16,79.088,67.81,225,1
2026-07-18T18:00:25.085Z,-3560,916,16116,2503,-2407,-575,-3364,796,15464,670,-2432,-242,26.14,79.05199999999999,67.71,223,1
2026-07-18T18:00:25.264Z,-6056,600,15932,1940,5315,-28,-5052,88,14872,-292,5531,209,26.16,79.088,67.67,223,1
2026-07-18T18:00:25.861Z,-6312,940,15620,1899,-3290,-534,-5584,568,14480,151,-3347,-191,26.16,79.088,67.64,223,1
2026-07-18T18:00:26.340Z,404,916,17312,2379,6376,-1517,1108,700,16204,36,6827,-1375,26.14,79.05199999999999,67.61,223,1
2026-07-18T18:00:26.943Z,-8404,892,12240,1094,-4271,941,-8688,240,11744,-550,-3774,1386,26.13,79.03399999999999,67.54,223,1
2026-07-18T18:00:27.297Z,-7552,616,14088,1401,8605,729,-7744,-300,13348,-807,7972,894,26.13,79.03399999999999,67.51,223,1
2026-07-18T18:00:27.961Z,-3936,768,16244,1558,-9947,-572,-3236,268,14964,134,-10096,-76,26.12,79.016,67.49,223,1
2026-07-18T18:00:28.381Z,-5080,1468,15356,2292,12082,-121,-4304,972,14564,-291,12256,11,26.12,79.016,67.49,222,1
2026-07-18T18:00:28.564Z,-5016,128,23316,3413,-224,-2343,76,436,17072,1225,996,-2168,26.12,79.016,67.5,223,1
2026-07-18T18:00:28.804Z,688,1600,18428,2173,-4339,-2147,1916,1072,17112,297,-3725,-1926,26.12,79.016,67.52,225,1
2026-07-18T18:00:29.282Z,-7492,1660,13716,2867,5616,-267,-6816,996,12812,520,6188,-102,26.1,78.98,67.55,223,1
2026-07-18T18:00:29.644Z,-5652,840,15524,1904,-10663,-442,-4236,532,13836,585,-10629,-2,26.1,78.98,67.56,223,1
2026-07-18T18:00:29.821Z,428,644,17420,2009,-1738,-1156,596,528,17124,-41,-451,-774,26.1,78.98,67.56,223,1
2026-07-18T18:00:29.998Z,-5540,936,16016,2285,7986,63,-4856,524,14628,-86,7850,263,26.12,79.016,67.56,222,1
2026-07-18T18:00:30.661Z,-1664,1492,16648,1947,-886,-324,-1276,1096,16188,63,-1398,-22,26.1,78.98,67.58,223,1
2026-07-18T18:00:30.845Z,-7708,192,15656,1868,4117,354,-7268,-236,13680,-313,4593,574,26.1,78.98,67.56,223,1
2026-07-18T18:00:31.264Z,-4028,768,17424,2193,3647,274,-3076,352,16256,129,3826,495,26.12,79.016,67.56,223,1
2026-07-18T18:00:31.560Z,-5948,204,15496,1873,-2389,-221,-5208,-244,14200,88,-2357,136,26.09,78.962,67.6,225,1
2026-07-18T18:00:34.622Z,-4504,900,16804,1840,-2966,-404,-3672,440,15456,128,-2968,-96,26.09,78.962,67.71,223,1
2026-07-18T18:00:36.304Z,-3072,1164,17788,2442,3932,-701,-2152,964,16556,285,4016,-540,26.1,78.98,67.71,225,1
2026-07-18T18:00:36.961Z,-8876,1048,13452,1364,-4737,-132,-8224,392,12532,-262,-4787,277,26.09,78.962,67.72,225,1
2026-07-18T18:00:37.261Z,-10624,1028,13480,1853,1678,-374,-10272,156,12752,-176,1719,-62,26.09,78.962,67.75,223,1
2026-07-18T18:00:39.006Z,-3780,400,16848,1655,-7616,-302,-2752,56,15540,204,-7816,88,26.07,78.926,67.78,223,1