Timestamp,MPU1_Accel_X,MPU1_Accel_Y,MPU1_Accel_Z,MPU1_Gyro_X,MPU1_Gyro_Y,MPU1_Gyro_Z,MPU2_Accel_X,MPU2_Accel_Y,MPU2_Accel_Z,MPU2_Gyro_X,MPU2_Gyro_Y,MPU2_Gyro_Z,Temp_C,Temp_F,Humidity,Gas_Analog,Gas_Digital
2026-07-18T17:53:23.765Z,3220,560,17632,1938,-47,-350,4116,564,15648,35,85,-14,25.49,77.882,68.57,243,1
2026-07-18T17:53:23.885Z,3172,552,17568,2022,-2,-355,4184,648,15708,76,57,-7,25.49,77.882,68.61,242,1
2026-07-18T17:53:24.427Z,3236,544,17544,2019,11,-369,4140,564,15600,61,105,-72,25.49,77.882,68.61,242,1
2026-07-18T17:53:24.551Z,3268,488,17480,1980,-1,-319,4248,616,15716,75,96,-11,25.49,77.882,68.59,242,1
2026-07-18T17:53:24.672Z,3168,596,17652,2023,-3,-335,4156,592,15732,90,109,-20,25.49,77.882,68.59,242,1
2026-07-18T17:53:24.850Z,2724,248,17784,1969,0,-60,3848,204,16012,43,-25,258,25.49,77.882,68.61,241,1
2026-07-18T17:53:25.327Z,5232,208,16092,1357,-3938,-760,7584,120,13832,-238,-2148,-419,25.49,77.882,68.62,242,1
2026-07-18T17:53:25.689Z,7080,52,16144,1129,-6462,-826,8384,184,14484,-540,-5069,-352,25.49,77.882,68.63,241,1
2026-07-18T17:53:25.808Z,8228,20,15012,1723,-5368,-623,8892,276,13228,62,-4654,-171,25.49,77.882,68.65,241,1
2026-07-18T17:53:25.930Z,9580,520,14688,1043,-947,-665,9936,860,12492,-706,-1244,-285,25.49,77.882,68.65,241,1
2026-07-18T17:53:26.108Z,7344,-708,18136,1997,1758,-1873,8952,128,14180,-449,1163,-1513,25.52,77.936,68.66,242,1
2026-07-18T17:53:26.349Z,9552,504,17328,2102,-1007,-439,10816,832,14400,203,-722,-125,25.49,77.882,68.71,241,1
2026-07-18T17:53:26.526Z,9516,436,15712,1872,-878,-199,10288,884,13192,47,-870,119,25.49,77.882,68.77,242,1
2026-07-18T17:53:27.606Z,9820,408,15384,1972,-61,-302,10432,864,12952,112,-68,-4,25.5,77.9,68.77,241,1
2026-07-18T17:53:27.909Z,9748,168,15364,2008,-472,-349,10444,672,12928,88,-518,-48,25.5,77.9,68.77,241,1
2026-07-18T17:53:28.091Z,10300,412,14272,1494,167,-580,10692,704,12260,-439,110,-282,25.52,77.936,68.77,241,1
2026-07-18T17:53:28.507Z,10120,-128,15308,1757,201,-668,10800,292,12996,-144,244,-322,25.52,77.936,68.76,241,1
2026-07-18T17:53:28.686Z,9936,260,15616,2065,-522,-252,11000,844,12712,210,-83,87,25.52,77.936,68.76,241,1
2026-07-18T17:53:28.926Z,9852,208,15084,1871,-33,-500,10636,668,12716,-95,109,-208,25.5,77.9,68.75,240,1
2026-07-18T17:53:29.229Z,9556,248,15880,1902,-130,-312,10260,728,13464,4,-42,-45,25.52,77.936,68.76,241,1
2026-07-18T17:53:29.467Z,9620,320,15532,1948,-1579,-370,10444,716,13008,140,-1487,-20,25.52,77.936,68.8,241,1
2026-07-18T17:53:29.588Z,10268,96,15192,2221,-1520,-135,10872,556,12508,407,-1438,243,25.52,77.936,68.8,242,1
2026-07-18T17:53:29.710Z,10072,100,15148,2385,3012,48,11268,660,11904,299,3140,290,25.52,77.936,68.8,241,1
2026-07-18T17:53:30.068Z,7492,360,16892,1969,-1308,-454,8296,612,14504,149,-1276,-91,25.53,77.95400000000001,68.8,241,1
2026-07-18T17:53:30.307Z,10036,324,15152,2015,-3115,-133,10164,688,13268,369,-3418,185,25.52,77.936,68.87,241,1
2026-07-18T17:53:30.548Z,11640,836,13112,1128,-4122,-205,11904,1132,11324,-365,-3862,104,25.52,77.936,68.91,241,1
2026-07-18T17:53:30.728Z,11496,692,13416,2215,-3319,-354,12188,1172,10952,471,-2783,-14,25.54,77.972,68.9,240,1
2026-07-18T17:53:31.024Z,12496,172,12824,2041,875,-288,12916,764,10304,73,1015,18,25.56,78.008,68.88,241,1
2026-07-18T17:53:31.204Z,11108,480,13844,2653,5916,-137,11280,744,12136,428,5409,63,25.54,77.972,68.87,240,1
2026-07-18T17:53:31.810Z,8528,520,15940,2345,4455,47,9084,936,13548,174,4788,263,25.54,77.972,68.84,240,1
2026-07-18T17:53:31.988Z,11188,76,15108,1644,-1615,-447,10928,440,13268,-4,-1854,-107,25.54,77.972,68.83,240,1
2026-07-18T17:53:32.231Z,11056,152,14516,2100,-1307,-315,11828,768,11788,278,-1675,74,25.53,77.95400000000001,68.85,239,1
2026-07-18T17:53:32.345Z,11636,208,14348,1887,-1292,-314,12408,668,11324,62,-1027,71,25.53,77.95400000000001,68.83,239,1
2026-07-18T17:53:32.528Z,12660,188,12668,1955,-1478,-230,13128,668,10032,150,-1316,85,25.54,77.972,68.83,239,1
2026-07-18T17:53:32.887Z,12968,132,12968,2006,-252,-324,13448,696,10208,142,-194,-18,25.54,77.972,68.84,239,1
2026-07-18T17:53:33.125Z,12528,324,12964,2199,2989,-283,13052,780,10412,130,3132,17,25.54,77.972,68.83,239,1
2026-07-18T17:53:33.549Z,10348,336,14624,2553,4143,-144,11124,856,12012,384,4185,45,25.54,77.972,68.84,240,1
2026-07-18T17:53:33.844Z,8704,272,16016,2132,2612,-343,9488,588,13584,55,2778,-75,25.54,77.972,68.87,240,1
2026-07-18T17:53:34.145Z,9260,116,14408,1800,6595,-29,8788,308,12984,-118,5327,14,25.54,77.972,68.88,240,1
2026-07-18T17:53:34.327Z,5772,-92,18860,2482,4318,-368,7192,476,15772,271,4600,-110,25.56,78.008,68.9,240,1
2026-07-18T17:53:34.508Z,4388,516,18212,1794,-3661,-312,5952,704,15552,100,-3471,19,25.57,78.026,68.91,239,1
2026-07-18T17:53:34.987Z,7808,248,15952,2010,-3186,-351,8644,564,13640,239,-3228,-12,25.54,77.972,68.93,239,1
2026-07-18T17:53:35.344Z,8320,68,17032,2215,-3219,-239,9432,632,13984,480,-3061,136,25.56,78.008,68.91,240,1
2026-07-18T17:53:35.471Z,8892,532,15112,1881,-4137,-75,10468,932,11984,224,-4139,243,25.56,78.008,68.9,239,1
2026-07-18T17:53:36.065Z,12884,476,11828,1624,-2190,-152,12520,840,9384,-35,-4140,109,25.56,78.008,68.88,238,1
2026-07-18T17:53:36.309Z,13980,-232,10664,2101,-2684,-148,14560,412,7792,291,-1865,103,25.56,78.008,68.93,240,1
2026-07-18T17:53:36.486Z,13280,-224,12564,2058,-197,-340,13764,412,9720,161,142,-27,25.56,78.008,68.96,239,1
2026-07-18T17:53:36.904Z,11436,1104,13124,3406,2481,494,13172,1600,9924,1118,5111,723,25.54,77.972,69.04,238,1
2026-07-18T17:53:37.507Z,12180,700,13256,2053,2342,-627,12768,1092,11604,3,2798,-406,25.56,78.008,69.04,238,1
2026-07-18T17:53:37.627Z,11932,360,12604,1819,3924,-289,11880,596,10956,-187,3884,-114,25.56,78.008,69.05,238,1
2026-07-18T17:53:38.344Z,8060,192,16216,1773,5823,-470,10272,880,12292,-424,6055,-285,25.57,78.026,69.06,239,1
2026-07-18T17:53:38.710Z,5724,1196,15480,1802,1769,-603,6772,876,14564,-384,4747,-270,25.57,78.026,69.05,238,1
2026-07-18T17:53:39.004Z,3956,372,18040,2061,-1278,-319,5004,448,15968,211,-1042,-22,25.56,78.008,69.07,238,1
2026-07-18T17:53:39.066Z,7120,408,17468,2110,-6550,-637,9808,1056,13736,265,-5508,-95,25.56,78.008,69.08,239,1
2026-07-18T17:53:39.249Z,12936,632,12520,1578,-4506,-232,13280,492,10480,-94,-3571,179,25.56,78.008,69.13,239,1
2026-07-18T17:53:39.430Z,12264,348,12812,2111,-2929,-255,12996,864,9820,246,-2886,129,25.57,78.026,69.15,238,1
2026-07-18T17:53:39.786Z,13436,24,12044,2171,-1047,-334,13584,488,9684,284,-1073,-70,25.56,78.008,69.14,238,1
2026-07-18T17:53:40.567Z,14296,480,10720,2013,-264,-147,13980,864,8976,203,-793,125,25.57,78.026,69.15,237,1
2026-07-18T17:53:41.050Z,11680,328,14328,2630,3004,-283,12320,720,11476,516,2792,-73,25.57,78.026,69.13,238,1
2026-07-18T17:53:41.349Z,8052,996,18268,1405,5767,-380,10192,1328,14928,-581,6619,-135,25.56,78.008,69.13,238,1
2026-07-18T17:53:41.525Z,5392,692,18188,1788,5186,-282,8116,952,14400,-364,5351,-67,25.57,78.026,69.12,239,1
2026-07-18T17:53:41.646Z,5048,404,17340,2114,-1516,-292,6004,612,15300,251,-1418,10,25.57,78.026,69.11,238,1
2026-07-18T17:53:41.824Z,6208,432,16868,1884,-796,-378,7004,688,14884,-3,-656,-38,25.56,78.008,69,236,1
2026-07-18T17:53:42.366Z,6424,220,16820,1969,-853,-312,7376,496,14592,103,-772,29,25.56,78.008,68.94,237,1
2026-07-18T17:53:43.029Z,8360,-200,18108,2088,-2772,-342,8660,164,15064,500,-3279,-129,25.57,78.026,68.91,238,1
2026-07-18T17:53:43.567Z,10276,452,14996,1590,-1155,-489,11108,980,12248,-218,-1031,-109,25.57,78.026,68.88,236,1
2026-07-18T17:53:43.930Z,10908,248,14652,2078,-1149,-388,11476,728,12032,224,-1072,-66,25.59,78.062,68.87,237,1
2026-07-18T17:53:44.287Z,11552,552,13968,1959,-12,-366,12376,564,11188,60,80,-37,25.61,78.098,68.85,236,1
2026-07-18T17:53:44.826Z,11768,-12,14056,2037,-35,-339,12344,568,11312,121,154,-70,25.57,78.026,68.83,236,1
2026-07-18T17:53:45.305Z,11460,216,14272,2065,237,-280,12020,776,11636,82,324,33,25.59,78.062,68.82,236,1
2026-07-18T17:53:45.607Z,11612,284,13956,1966,-184,-327,12220,812,11464,97,-106,-10,25.61,78.098,68.79,236,1
2026-07-18T17:53:45.851Z,11768,344,13840,1950,353,-296,12276,836,11120,50,460,3,25.59,78.062,68.77,236,1
2026-07-18T17:53:46.387Z,11376,128,14268,2302,1269,-423,11940,692,11700,230,1774,-84,25.61,78.098,68.77,236,1
2026-07-18T17:53:46.806Z,10832,224,14556,1942,1,-324,11524,700,11992,12,53,-16,25.62,78.116,68.74,237,1
2026-07-18T17:53:46.989Z,11884,552,12392,1530,-404,-173,12020,952,10328,-273,-918,107,25.59,78.062,68.69,236,1
2026-07-18T17:53:47.167Z,10612,152,14880,1814,-345,-438,11292,668,12316,-107,-309,-145,25.59,78.062,68.61,237,1
2026-07-18T17:53:47.466Z,11476,268,14260,1207,143,-1176,12068,776,11672,-775,265,-832,25.61,78.098,68.55,236,1
2026-07-18T17:53:47.707Z,10640,36,15168,2151,630,-213,11276,484,12680,187,750,34,25.59,78.062,68.52,236,1
2026-07-18T17:53:47.891Z,10836,168,14544,2214,23,-206,11480,596,12040,304,102,72,25.61,78.098,68.51,235,1
2026-07-18T17:53:48.124Z,10912,268,14540,2269,1476,-194,11464,780,12180,309,1623,74,25.64,78.152,68.5,236,1
2026-07-18T17:53:48.424Z,9328,160,15812,2187,1726,-186,10148,620,13112,192,1827,85,25.62,78.116,68.49,236,1
2026-07-18T17:53:48.608Z,5004,612,16592,1141,2644,-86,5588,628,15328,-741,1352,135,25.61,78.098,68.65,236,1
2026-07-18T17:53:49.024Z,3608,796,17700,1823,-380,-777,4580,920,15772,-130,-289,-452,25.59,78.062,68.87,236,1
2026-07-18T17:53:49.386Z,5588,460,17376,1870,-3342,-240,6568,656,15240,196,-3248,113,25.62,78.116,68.91,236,1
2026-07-18T17:53:49.747Z,7552,408,15780,1512,-2324,-824,8060,620,13868,-393,-2546,-456,25.61,78.098,68.91,236,1
2026-07-18T17:53:49.984Z,9680,208,14928,2105,-985,-103,10632,688,12308,229,-897,191,25.62,78.116,68.91,236,1
2026-07-18T17:53:50.106Z,10844,204,14348,1823,-1119,-405,11292,688,12140,-51,-970,-57,25.61,78.098,68.98,236,1
2026-07-18T17:53:50.287Z,11016,176,14536,1966,-143,-347,11636,580,11924,7,-44,2,25.61,78.098,69.07,236,1
2026-07-18T17:53:50.464Z,10856,72,14716,2047,-119,-328,11568,672,12160,97,11,-6,25.61,78.098,69.07,236,1
2026-07-18T17:53:50.644Z,10856,300,14380,1986,772,-337,11564,672,11848,45,1020,-27,25.61,78.098,69.07,235,1
2026-07-18T17:53:50.887Z,9792,268,15300,2023,134,-346,10532,684,12924,128,207,-12,25.61,78.098,69.11,234,1
2026-07-18T17:53:51.301Z,9964,196,15204,1981,-173,-301,10588,628,12796,44,-9,-1,25.61,78.098,69.07,235,1
2026-07-18T17:53:51.544Z,9796,388,15288,1940,-452,-276,10488,812,12848,54,-318,66,25.61,78.098,69.07,236,1
2026-07-18T17:53:51.962Z,10384,216,14796,1894,-589,-261,11008,648,12432,4,-555,75,25.61,78.098,69.09,235,1
2026-07-18T17:53:52.266Z,10372,456,15032,1910,-395,-330,10948,812,12596,-27,-279,-56,25.61,78.098,69.18,235,1
2026-07-18T17:53:52.389Z,10764,188,14812,1966,-334,-417,11352,628,12304,35,-324,-162,25.62,78.116,69.21,235,1
2026-07-18T17:53:52.747Z,10628,116,14948,2042,3,-315,11256,672,12272,121,91,-29,25.61,78.098,69.22,235,1
2026-07-18T17:53:53.168Z,10176,260,15156,2002,1499,-363,10876,688,12616,7,1653,-71,25.62,78.116,69.22,235,1
2026-07-18T17:53:53.284Z,9900,260,15472,2061,1416,-360,10536,616,12928,13,1554,-54,25.61,78.098,69.21,235,1
2026-07-18T17:53:53.461Z,8944,-196,17656,2102,1858,-385,9772,392,14480,188,1446,-165,25.64,78.152,69.18,235,1
2026-07-18T17:53:54.179Z,9524,352,15708,1877,-2232,-323,10180,828,13228,113,-2262,71,25.62,78.116,69.15,234,1
2026-07-18T17:53:54.479Z,10856,-44,14648,2041,-656,-353,11608,508,12036,163,-552,-29,25.64,78.152,69.1,237,1
2026-07-18T17:53:54.719Z,11164,36,14448,1861,-1146,-318,11808,496,11844,5,-1116,-10,25.62,78.116,69.07,235,1
2026-07-18T17:53:54.842Z,11416,132,14132,1827,-1363,-285,11956,588,11556,0,-1340,37,25.62,78.116,69.06,235,1
2026-07-18T17:53:55.260Z,11984,276,13816,1848,-1782,-308,12760,808,11096,61,-1616,36,25.65,78.17,69.05,235,1
2026-07-18T17:53:55.619Z,12664,-20,12844,2030,-523,-288,13184,548,10296,146,-352,28,25.64,78.152,69.04,235,1
2026-07-18T17:53:55.741Z,12140,16,13540,1964,-289,-288,12768,588,10876,85,-165,18,25.64,78.152,69.03,233,1
2026-07-18T17:53:55.976Z,12300,100,13344,2058,1409,-388,12828,740,10764,73,1515,-137,25.65,78.17,69,235,1
2026-07-18T17:53:56.279Z,10304,292,14920,1998,1623,-412,11080,712,12352,18,1734,-131,25.65,78.17,68.97,234,1
2026-07-18T17:53:56.579Z,9876,244,15244,2058,1868,-372,10568,652,12720,10,1897,-103,25.64,78.152,68.93,235,1
2026-07-18T17:53:56.701Z,8444,268,16352,1884,717,-338,9416,716,13944,-71,918,-38,25.64,78.152,68.91,235,1
2026-07-18T17:53:56.879Z,9784,-48,15720,1920,-2528,-201,10416,264,13208,111,-2566,98,25.64,78.152,68.9,234,1
2026-07-18T17:53:57.000Z,10396,240,14808,1625,-2111,-382,11044,644,12404,-168,-2071,-56,25.65,78.17,68.87,234,1
2026-07-18T17:53:57.538Z,11028,-148,14464,1845,-1142,-295,11636,356,11812,-17,-1079,50,25.66,78.188,68.84,234,1
2026-07-18T17:53:57.778Z,11624,196,14076,1602,493,-497,12296,756,11428,-383,673,-202,25.66,78.188,68.82,234,1
2026-07-18T17:53:58.078Z,11392,292,14200,1947,962,-273,11916,692,11588,-6,1041,-10,25.66,78.188,68.77,235,1
2026-07-18T17:53:58.558Z,11520,80,13944,2061,2262,-394,12096,616,11416,23,2397,-93,25.68,78.224,68.74,235,1
2026-07-18T17:53:59.157Z,8156,196,16016,2070,698,-192,8752,540,13840,148,721,88,25.66,78.188,68.71,233,1
2026-07-18T17:53:59.398Z,7636,428,16948,2050,-1492,-337,8468,752,14628,226,-1444,50,25.66,78.188,68.6,234,1
2026-07-18T17:53:59.817Z,9592,284,15504,1611,-3498,-329,10180,604,13092,-4,-3592,58,25.66,78.188,68.57,235,1
2026-07-18T17:53:59.998Z,10060,188,15288,2107,-2831,-368,10828,596,12556,327,-2736,-37,25.68,78.224,68.55,234,1
2026-07-18T17:54:00.120Z,11540,16,14248,2130,-1926,-328,11800,568,11636,274,-1654,-17,25.68,78.224,68.53,234,1
2026-07-18T17:54:00.297Z,12080,24,13848,1893,-603,-337,12584,528,11248,-24,-527,-31,25.68,78.224,68.51,234,1
2026-07-18T17:54:00.658Z,12368,-32,13268,1863,-475,-308,12752,544,10836,43,-721,-36,25.68,78.224,68.53,234,1
2026-07-18T17:54:01.077Z,12284,-4,13516,2067,-626,-267,12844,572,10800,142,-508,34,25.68,78.224,68.51,235,1
2026-07-18T17:54:01.437Z,12944,-68,12364,1828,-1557,-348,13276,500,9844,2,-1576,-32,25.68,78.224,68.53,232,1
2026-07-18T17:54:01.558Z,13284,-12,12600,2004,1036,-372,13680,688,9800,47,1131,-104,25.68,78.224,68.57,234,1
2026-07-18T17:54:02.336Z,13008,-12,12588,2060,2211,-346,13320,536,10000,57,2303,-86,25.69,78.242,68.68,234,1
2026-07-18T17:54:02.519Z,11832,0,14116,2262,3973,-426,12216,548,11576,91,4288,-200,25.7,78.25999999999999,68.71,233,1
2026-07-18T17:54:02.695Z,11120,196,14744,2132,2321,-346,11636,632,12080,109,2439,-100,25.69,78.242,68.71,234,1
2026-07-18T17:54:02.877Z,8548,652,16308,2009,3234,-406,9120,884,14112,-111,3380,-141,25.7,78.25999999999999,68.71,234,1
2026-07-18T17:54:03.175Z,8084,276,16276,1732,-1043,-428,8936,676,13920,-137,-1007,-49,25.66,78.188,68.67,234,1
2026-07-18T17:54:03.357Z,10384,164,14832,1692,-4045,-187,10932,708,12320,16,-4046,215,25.68,78.224,68.61,233,1
2026-07-18T17:54:03.717Z,11320,16,14608,2233,-2252,-260,12208,608,11224,379,-2262,46,25.68,78.224,68.57,233,1
2026-07-18T17:54:03.958Z,13764,-168,12016,2077,-218,-389,14144,464,9244,141,-25,-79,25.66,78.188,68.55,234,1
2026-07-18T17:54:04.138Z,12956,-100,12876,1873,3669,-323,13320,148,10196,-270,3990,-22,25.68,78.224,68.49,233,1
2026-07-18T17:54:04.437Z,10052,432,15216,2143,4317,-477,10412,776,13068,-48,4571,-265,25.66,78.188,68.46,233,1
2026-07-18T17:54:04.619Z,8524,352,16216,2094,2296,-357,8988,596,14144,31,2424,-108,25.65,78.17,68.39,235,1
2026-07-18T17:54:04.797Z,9856,376,16384,2638,1507,-309,9112,740,15372,526,889,-41,25.66,78.188,68.35,233,1
2026-07-18T17:54:05.037Z,7400,328,16904,2304,2014,-38,8228,620,14736,280,2113,244,25.69,78.242,68.35,233,1
2026-07-18T17:54:05.159Z,8872,132,15988,1618,-6603,-366,9672,508,13316,61,-6688,53,25.68,78.224,68.35,232,1
2026-07-18T17:54:05.457Z,12428,-24,13468,1617,427,78,12600,388,11836,107,-403,316,25.68,78.224,68.35,232,1
2026-07-18T17:54:05.757Z,12384,144,13388,1682,-1509,-377,12916,696,10592,-176,-1398,-45,25.66,78.188,68.35,232,1
2026-07-18T17:54:06.297Z,12348,132,13388,1663,-1806,-306,13260,804,10424,-123,-1825,47,25.66,78.188,68.35,233,1
2026-07-18T17:54:06.717Z,10140,160,15424,2208,2873,-346,11676,744,12092,100,3006,-144,25.68,78.224,68.33,233,1
2026-07-18T17:54:06.897Z,8988,712,17824,2826,4994,914,10268,896,13884,904,5166,1125,25.66,78.188,68.35,232,1
2026-07-18T17:54:07.019Z,9392,424,15792,2103,1625,-329,10036,912,13340,48,1837,-59,25.68,78.224,68.35,232,1
2026-07-18T17:54:07.557Z,8772,308,15424,2151,2425,-380,9564,612,13128,81,2537,-138,25.69,78.242,68.35,232,1
2026-07-18T17:54:07.797Z,7164,664,16812,2206,1753,-238,8008,936,14396,198,1763,3,25.69,78.242,68.36,233,1
2026-07-18T17:54:08.097Z,9276,860,15704,2213,3159,-253,8440,904,14484,189,1938,-68,25.68,78.224,68.4,233,1
2026-07-18T17:54:08.577Z,6528,356,17064,2001,-3855,-257,7424,668,14908,270,-3712,83,25.69,78.242,68.43,232,1
2026-07-18T17:54:09.056Z,8968,552,15820,1715,-4461,-39,9728,908,13452,89,-4398,317,25.69,78.242,68.55,232,1
2026-07-18T17:54:09.417Z,10152,132,14752,1668,-2624,-351,10788,648,12208,-118,-2585,40,25.69,78.242,68.59,232,1
2026-07-18T17:54:09.716Z,11168,328,14204,2082,-1437,-341,11692,732,11604,252,-1420,-16,25.69,78.242,68.63,232,1
2026-07-18T17:54:09.956Z,11812,248,13464,2195,-863,-329,12276,760,10968,338,-712,-34,25.68,78.224,68.63,232,1
2026-07-18T17:54:10.376Z,11400,188,14020,1860,-356,-365,12056,700,11504,-33,-180,-14,25.69,78.242,68.62,233,1
2026-07-18T17:54:10.498Z,11932,172,13656,1944,-826,-376,12436,716,11088,81,-759,-8,25.69,78.242,68.61,232,1
2026-07-18T17:54:10.796Z,12000,40,13596,1942,-508,-352,12612,636,10968,11,-408,-15,25.69,78.242,68.59,232,1
2026-07-18T17:54:10.976Z,11928,40,14016,2018,-525,-275,12440,512,11408,154,-511,6,25.69,78.242,68.58,233,1
2026-07-18T17:54:11.156Z,12556,56,13408,2016,-334,-329,12964,584,10680,105,-154,7,25.69,78.242,68.57,233,1
2026-07-18T17:54:11.456Z,9484,372,15292,2173,2263,-394,10684,812,12468,47,3365,-112,25.69,78.242,68.57,232,1
2026-07-18T17:54:11.577Z,7088,408,16504,1978,2543,-403,7780,704,14232,-58,2802,-148,25.68,78.224,68.61,232,1
2026-07-18T17:54:11.936Z,5632,420,17364,2030,3221,-543,6752,664,14708,37,3548,-337,25.69,78.242,68.65,232,1
2026-07-18T17:54:12.236Z,4960,488,18280,2018,-129,-353,5896,668,16092,85,-32,-55,25.7,78.25999999999999,68.66,232,1
2026-07-18T17:54:12.416Z,10972,436,13828,1413,-2872,-178,10280,656,12828,-138,-3766,74,25.72,78.29599999999999,68.66,232,1
2026-07-18T17:54:12.657Z,11020,136,14660,2250,-2681,-183,11800,528,11752,449,-2373,154,25.69,78.242,68.68,232,1
2026-07-18T17:54:12.776Z,12540,-112,13468,1897,-1601,-325,12968,468,10856,53,-1575,10,25.7,78.25999999999999,68.69,231,1
2026-07-18T17:54:13.134Z,12984,164,12884,1902,-997,-303,13368,752,10240,86,-954,19,25.7,78.25999999999999,68.68,231,1
2026-07-18T17:54:13.258Z,12544,-244,13432,2380,2335,-407,12636,708,11040,179,2771,-147,25.7,78.25999999999999,68.66,232,1
2026-07-18T17:54:13.616Z,10572,448,14700,2429,5502,-343,10960,880,12564,157,5752,-118,25.72,78.29599999999999,68.63,231,1
2026-07-18T17:54:13.738Z,7392,608,16700,2023,1728,-406,8304,936,14332,-28,1913,-119,25.72,78.29599999999999,68.59,232,1
2026-07-18T17:54:13.976Z,6832,776,16456,2046,2615,-185,7412,904,14508,-10,2511,101,25.72,78.29599999999999,68.57,231,1
2026-07-18T17:54:14.156Z,5220,720,18168,1935,-2031,-365,6168,748,15992,174,-1953,-57,25.73,78.314,68.54,232,1
2026-07-18T17:54:14.456Z,7232,504,16228,1666,-4306,-211,8068,756,14148,69,-4441,219,25.72,78.29599999999999,68.52,232,1
2026-07-18T17:54:14.634Z,10016,172,14724,2114,-4040,-211,10604,676,12356,411,-3917,175,25.73,78.314,68.49,231,1
2026-07-18T17:54:14.936Z,11504,204,13888,2088,-2647,-258,12068,732,11344,283,-2446,131,25.73,78.314,68.47,230,1
2026-07-18T17:54:15.176Z,12692,852,12668,1802,-1299,-97,12096,1224,10636,-67,-287,228,25.73,78.314,68.47,232,1
2026-07-18T17:54:15.536Z,12388,384,13764,1542,-2172,-382,12812,904,11264,-252,-2166,-52,25.75,78.35,68.46,232,1
2026-07-18T17:54:15.956Z,12888,144,12684,1920,-1490,-310,13356,672,10024,51,-1259,-31,25.75,78.35,68.43,231,1
2026-07-18T17:54:16.975Z,13036,20,12732,2021,-851,-397,13520,688,9804,104,-793,-131,25.76,78.368,68.4,230,1
2026-07-18T17:54:17.215Z,13352,132,12508,1885,161,-323,13848,704,9728,-36,60,-34,25.72,78.29599999999999,68.4,231,1
2026-07-18T17:54:17.816Z,13600,-4,12120,1951,315,-295,14084,600,9424,49,469,57,25.75,78.35,68.39,232,1
2026-07-18T17:54:18.534Z,13280,16,12288,2110,2424,-353,13688,576,9456,51,2566,-102,25.75,78.35,68.37,230,1
2026-07-18T17:54:19.375Z,12720,200,12828,2197,3660,-367,13016,744,10288,72,4039,-181,25.75,78.35,68.35,231,1
2026-07-18T17:54:19.795Z,10364,288,14040,2116,4019,-624,10572,656,12104,-121,3932,-379,25.75,78.35,68.33,230,1
2026-07-18T17:54:20.095Z,8720,540,15616,1767,5672,-1242,8572,776,14348,-550,5513,-1036,25.75,78.35,68.3,231,1
2026-07-18T17:54:21.115Z,5920,408,17720,1995,896,-281,6680,660,15592,19,1080,30,25.75,78.35,68.29,231,1
2026-07-18T17:54:21.355Z,6252,544,16520,1993,887,-292,7064,760,14484,66,998,2,25.75,78.35,68.25,231,1
2026-07-18T17:54:21.895Z,5232,740,17852,1379,-1707,-406,6316,900,15580,-385,-1659,-21,25.76,78.368,68.24,231,1
2026-07-18T17:54:22.675Z,7400,616,16580,1741,-4345,-107,8044,732,14708,240,-4969,227,25.76,78.368,68.21,230,1
2026-07-18T17:54:23.515Z,10140,492,15336,1865,-4449,-41,10832,1088,12732,267,-4586,349,25.75,78.35,68.2,231,1
2026-07-18T17:54:24.655Z,11724,96,13676,2346,-3282,-256,12448,728,11112,609,-3112,69,25.75,78.35,68.19,231,1
2026-07-18T17:54:24.955Z,13108,-128,12980,1777,-2024,-289,13476,456,10324,-34,-1919,26,25.76,78.368,68.19,230,1
2026-07-18T17:54:25.375Z,13180,140,12480,2067,-1167,-299,13532,684,9916,177,-834,46,25.76,78.368,68.21,230,1
2026-07-18T17:54:25.615Z,13844,-164,12296,1863,-1080,-210,14244,388,9548,11,-961,103,25.76,78.368,68.23,231,1
2026-07-18T17:54:26.035Z,14020,-88,11984,2067,-1,-422,14284,512,9168,149,345,-164,25.76,78.368,68.25,231,1
2026-07-18T17:54:26.395Z,7912,48,16300,2545,2304,-390,8948,488,13720,479,2776,-247,25.77,78.386,68.25,231,1
2026-07-18T17:54:26.514Z,6712,744,16752,1946,1284,-338,7468,980,14600,-43,1380,-80,25.75,78.35,68.35,230,1
2026-07-18T17:54:26.876Z,9048,244,15892,1578,-3241,-325,9784,680,13688,-134,-3285,-47,25.76,78.368,68.35,230,1
2026-07-18T17:54:27.356Z,13316,372,12080,2004,-1997,-243,13860,920,9132,218,-1875,66,25.76,78.368,68.37,230,1
2026-07-18T17:54:27.776Z,12552,212,13104,2101,4179,-313,13096,752,10588,-11,4294,-114,25.75,78.35,68.43,230,1
2026-07-18T17:54:27.897Z,8604,600,15600,2295,4217,-457,9204,868,13196,111,4365,-198,25.76,78.368,68.41,230,1
2026-07-18T17:54:28.196Z,5876,668,16980,2079,2370,-37,6824,732,14756,42,2567,268,25.76,78.368,68.33,230,1
2026-07-18T17:54:28.318Z,11188,240,13892,1547,-5005,-367,11672,932,11332,-195,-5138,-8,25.76,78.368,68.24,230,1
2026-07-18T17:54:28.496Z,12800,-84,13316,1897,-1793,-293,13376,600,10536,117,-1897,17,25.77,78.386,68.16,230,1
2026-07-18T17:54:28.675Z,13388,120,12100,1769,308,-416,13928,712,9296,-224,756,-66,25.77,78.386,68.16,230,1
2026-07-18T17:54:28.975Z,13504,16,12224,1975,-29,-412,13844,608,9508,108,21,-78,25.77,78.386,68.16,230,1
2026-07-18T17:54:29.216Z,13160,196,12900,2132,-83,-346,13512,680,10140,139,79,-82,25.79,78.422,68.11,229,1
2026-07-18T17:54:29.634Z,13064,156,12828,2100,-320,-309,13468,692,10148,175,-166,-5,25.77,78.386,68.05,229,1
2026-07-18T17:54:29.995Z,12260,168,13044,1808,-473,-993,13216,668,10120,-178,152,-622,25.79,78.422,67.93,229,1
2026-07-18T17:54:30.235Z,11440,96,14140,1948,-567,-331,12096,680,11560,76,-428,-34,25.8,78.44,67.89,230,1
2026-07-18T17:54:30.716Z,11568,140,14108,1810,711,-473,12104,516,11420,-133,859,-157,25.77,78.386,67.84,230,1
2026-07-18T17:54:30.956Z,11236,140,14088,2027,4084,-435,11764,688,11388,-163,4271,-209,25.77,78.386,67.8,229,1
2026-07-18T17:54:31.076Z,10980,1432,11808,1440,9984,-353,8812,1100,14036,-646,8838,-519,25.79,78.422,67.74,229,1
2026-07-18T17:54:31.374Z,4068,-516,20136,1741,4619,-183,6220,28,16236,-289,4164,68,25.79,78.422,67.71,229,1
2026-07-18T17:54:32.096Z,6416,96,17156,1873,-3336,-99,7376,440,14820,176,-3317,268,25.8,78.44,67.71,230,1
2026-07-18T17:54:32.634Z,9192,464,15668,1603,-3967,-514,10088,860,13192,-114,-4253,-152,25.8,78.44,67.69,229,1
2026-07-18T17:54:33.055Z,11576,108,14444,2082,-1493,-456,12164,672,11904,221,-1524,-146,25.8,78.44,67.66,230,1
2026-07-18T17:54:33.175Z,7788,-168,17812,2318,-3444,-518,11656,668,11768,354,-2213,-85,25.79,78.422,67.65,229,1
2026-07-18T17:54:33.956Z,12368,-112,13624,1804,-752,-369,13004,460,10732,-68,-672,-19,25.8,78.44,67.64,228,1
2026-07-18T17:54:34.135Z,13008,-144,12852,1484,-871,-334,13236,528,10856,-280,-928,-46,25.79,78.422,67.64,229,1
2026-07-18T17:54:34.915Z,13936,156,11868,1837,-1104,-414,14004,756,9484,-38,-1358,-86,25.81,78.458,67.63,229,1
2026-07-18T17:54:35.455Z,11272,24,15672,3478,2406,666,13148,1120,11076,1382,3070,966,25.8,78.44,67.63,229,1
2026-07-18T17:54:35.816Z,10720,-200,14640,2145,-1213,-847,12128,828,10964,52,-15,-397,25.81,78.458,67.63,229,1
2026-07-18T17:54:36.415Z,11272,-316,14720,2181,3619,-386,11988,276,11868,130,3699,-145,25.8,78.44,67.64,229,1
2026-07-18T17:54:36.773Z,9584,40,15268,1846,1239,-266,10196,360,12988,-156,1132,4,25.8,78.44,67.68,229,1
2026-07-18T17:54:37.315Z,6244,-1404,18816,2153,1409,-556,8900,-800,13428,28,3328,-234,25.79,78.422,67.75,230,1
2026-07-18T17:54:37.675Z,9464,848,13344,1732,2011,-3,8772,1016,13976,-157,2433,262,25.8,78.44,67.79,229,1
2026-07-18T17:54:38.155Z,7568,-144,16076,1920,-2332,-28,8380,320,13972,143,-1966,383,25.8,78.44,67.79,228,1
2026-07-18T17:54:38.935Z,8888,452,15596,2061,-4174,-236,9760,784,12776,331,-4035,107,25.8,78.44,67.8,228,1
2026-07-18T17:54:39.115Z,10120,180,14592,2039,-3029,-419,10808,592,11912,324,-3090,-91,25.79,78.422,67.78,229,1
2026-07-18T17:54:39.655Z,11792,156,13708,1638,-2338,-697,12296,628,11084,-231,-2579,-265,25.81,78.458,67.78,229,1
2026-07-18T17:54:40.315Z,12656,-348,13296,2203,-1033,-324,13192,276,10432,294,-948,2,25.8,78.44,67.78,227,1
2026-07-18T17:54:40.733Z,12776,108,12844,2170,1678,-249,13116,652,10044,210,1748,24,25.79,78.422,67.77,229,1
2026-07-18T17:54:42.174Z,11060,128,14756,2258,3401,-411,11632,568,12148,11,3599,-135,25.8,78.44,67.78,229,1
2026-07-18T17:54:42.355Z,10172,60,15248,2120,2559,-345,10888,488,12636,31,2818,-37,25.79,78.422,67.75,229,1
2026-07-18T17:54:42.596Z,7328,468,16096,1641,488,-334,7616,616,14476,-220,296,-59,25.81,78.458,67.75,229,1
2026-07-18T17:54:42.719Z,8220,452,15996,1663,-3837,-174,9136,780,13672,-14,-3744,219,25.79,78.422,67.77,228,1
2026-07-18T17:54:43.137Z,12112,-552,15480,2407,-4014,-624,13036,440,11440,478,-3744,-208,25.8,78.44,67.78,229,1
2026-07-18T17:54:43.260Z,12616,-100,12628,2436,-2129,-633,13720,508,8804,341,-547,-239,25.79,78.422,67.8,228,1
2026-07-18T17:54:43.619Z,12168,-4,13472,2058,1535,-229,13380,644,10432,12,2087,48,25.79,78.422,67.78,229,1
2026-07-18T17:54:43.858Z,10532,-360,15964,2750,3433,-359,10808,196,13260,491,3838,-59,25.8,78.44,67.79,229,1
2026-07-18T17:54:44.039Z,8808,388,15420,1747,2579,-490,9188,656,13368,-205,2354,-202,25.8,78.44,67.79,229,1
2026-07-18T17:54:44.159Z,8200,240,16768,1778,-3234,-231,9136,552,14388,104,-3149,123,25.8,78.44,67.79,229,1
2026-07-18T17:54:44.520Z,10808,-68,14868,1732,-2124,-93,11240,440,12108,38,-2356,201,25.8,78.44,67.78,228,1
2026-07-18T17:54:44.695Z,14072,-372,13992,2113,-1990,-186,14820,256,10320,440,-2506,-10,25.81,78.458,67.78,229,1
2026-07-18T17:54:44.819Z,12044,372,11872,2206,4548,-387,12136,196,10256,176,4803,-236,25.81,78.458,67.78,229,1
2026-07-18T17:54:44.995Z,9224,-56,15652,1897,6909,-74,9872,336,13136,-156,4907,8,25.83,78.494,67.78,228,1
2026-07-18T17:54:45.239Z,6336,348,16984,2013,-271,-247,7132,600,14748,65,-114,73,25.83,78.494,67.77,229,1
2026-07-18T17:54:45.593Z,9200,160,15880,1499,-4140,-91,9200,496,14432,-117,-4270,376,25.83,78.494,67.78,229,1
2026-07-18T17:54:45.839Z,11388,476,14240,2025,-3460,-319,12696,804,11464,355,-3044,21,25.81,78.458,67.76,229,1
2026-07-18T17:54:46.018Z,6340,1108,16284,2983,2389,-488,7416,1072,15304,515,4469,-147,25.83,78.494,67.77,229,1
2026-07-18T17:54:46.318Z,5036,392,17924,1931,-442,-66,6056,588,15640,45,-415,241,25.83,78.494,67.78,229,1
2026-07-18T17:54:46.740Z,6480,548,16560,1838,-2894,198,7208,788,14584,77,-2878,538,25.83,78.494,67.77,229,1
2026-07-18T17:54:48.357Z,7408,428,16016,1705,-3297,141,8096,776,14144,51,-3339,509,25.83,78.494,67.75,228,1
2026-07-18T17:54:48.717Z,7288,224,18712,1507,-2679,-876,9472,792,14684,-290,-2603,-484,25.86,78.548,67.75,228,1
2026-07-18T17:54:49.139Z,9756,-40,16072,1646,-5093,-272,11188,340,13312,58,-4266,148,25.83,78.494,67.74,229,1
2026-07-18T17:54:49.376Z,12164,292,14172,2460,-5848,-541,14572,1016,9292,534,-4706,-55,25.84,78.512,67.74,229,1
2026-07-18T17:54:49.559Z,14652,-180,10520,1871,-737,-291,14880,524,7552,11,54,-23,25.84,78.512,67.72,228,1
2026-07-18T17:54:49.795Z,14972,308,10448,2136,2260,-212,14520,944,9044,98,1468,63,25.84,78.512,67.71,228,1
2026-07-18T17:54:50.395Z,14528,44,11124,2259,1387,-351,14376,660,8816,244,1489,-51,25.86,78.548,67.72,229,1
2026-07-18T17:54:50.639Z,12768,204,12868,2130,1355,-290,13200,624,10716,137,1682,-52,25.86,78.548,67.71,227,1
2026-07-18T17:54:51.174Z,11780,-96,13896,1477,527,-333,12580,336,10680,-451,704,-20,25.86,78.548,67.71,228,1
2026-07-18T17:54:51.656Z,13556,400,9828,1538,1353,-122,12416,620,9464,-348,2300,131,25.84,78.512,67.68,228,1
2026-07-18T17:54:51.838Z,12520,164,12076,1641,4244,-267,12316,596,10316,-156,3609,-120,25.87,78.566,67.68,228,1
2026-07-18T17:54:52.017Z,11096,-168,14856,2170,866,-259,10748,396,12700,157,453,3,25.86,78.548,67.68,228,1
2026-07-18T17:54:52.198Z,9452,-100,16584,1836,1270,-450,10368,320,13512,-239,1622,-131,25.86,78.548,67.66,227,1
2026-07-18T17:54:52.439Z,7776,-44,18568,1528,1693,-303,8656,664,16068,-244,2116,-54,25.86,78.548,67.66,227,1
2026-07-18T17:54:52.676Z,8000,84,16680,2074,-963,-192,8748,396,14320,247,-856,112,25.86,78.548,67.64,229,1
2026-07-18T17:54:52.857Z,9644,376,14352,1461,-4792,-267,10596,576,12272,-5,-5095,119,25.86,78.548,67.63,229,1
2026-07-18T17:54:53.041Z,12908,-672,16044,1756,-3018,-50,14692,712,11116,236,-5708,210,25.84,78.512,67.61,228,1
2026-07-18T17:54:53.159Z,12560,332,11968,949,-4262,210,14140,724,8704,-410,-5126,458,25.86,78.548,67.56,228,1
2026-07-18T17:54:53.339Z,8672,1332,15984,1926,11568,39,9976,1356,14272,-560,13230,138,25.83,78.494,67.48,227,1
2026-07-18T17:54:53.637Z,14404,-120,9332,2117,-1123,172,15840,304,5388,613,-1282,403,25.84,78.512,67.44,228,1
2026-07-18T17:54:53.938Z,3304,1288,19088,1543,7568,-284,7848,1136,14680,-833,12086,-72,25.86,78.548,67.42,228,1
2026-07-18T17:54:54.475Z,4792,128,19348,1246,-7096,-1557,5772,260,17296,-298,-7650,-1171,25.84,78.512,67.36,228,1
2026-07-18T17:54:54.719Z,7748,-376,16496,2123,-9802,-58,12596,-140,8792,490,-7149,510,25.84,78.512,67.35,228,1
2026-07-18T17:54:55.075Z,9908,100,13068,1208,-10042,-602,11636,552,8556,-202,-11204,-195,25.84,78.512,67.32,228,1
2026-07-18T17:54:55.319Z,12856,740,9336,3114,8435,524,12420,296,8184,843,9843,577,25.86,78.548,67.3,227,1
2026-07-18T17:54:55.557Z,13752,504,11144,3051,-1009,1165,14220,988,8800,1423,242,1512,25.86,78.548,67.27,228,1
2026-07-18T17:54:55.795Z,9756,712,13448,243,-12391,-2115,11084,1068,9820,-1124,-13886,-1509,25.84,78.512,67.22,227,1
2026-07-18T17:54:55.919Z,13396,192,7872,3904,6217,601,14492,760,4788,1572,7296,788,25.84,78.512,67.18,227,1
2026-07-18T17:54:56.157Z,7656,1592,17300,2149,11051,-618,8392,1672,15580,-460,11592,-407,25.87,78.566,67.18,226,1
2026-07-18T17:54:56.395Z,6040,660,16900,1526,-5420,-975,6764,760,15536,-21,-5907,-645,25.86,78.548,67.15,227,1
2026-07-18T17:54:56.695Z,13016,-1220,13812,3406,-2664,833,13420,-160,8528,1573,-2694,1195,25.87,78.566,67.14,226,1
2026-07-18T17:54:56.995Z,9244,1624,15952,922,7354,37,4596,1276,20028,-1140,5311,278,25.86,78.548,67.1,227,1
2026-07-18T17:54:57.539Z,3624,480,20160,986,-7815,-1736,5172,672,17484,-566,-8358,-1381,25.86,78.548,67.08,227,1
2026-07-18T17:54:57.718Z,12836,424,9044,976,-4211,357,11660,628,9084,-192,-7039,778,25.87,78.566,67.06,227,1
2026-07-18T17:54:58.195Z,14000,-1800,10592,1068,3045,-630,14456,-904,7372,-974,2776,-369,25.87,78.566,67.05,226,1
2026-07-18T17:54:58.375Z,7408,-420,21692,2616,17180,-626,7800,528,18328,-100,15134,-567,25.87,78.566,67.02,228,1
2026-07-18T17:54:58.739Z,7624,316,16748,1703,-12445,862,8324,576,14304,634,-12749,1476,25.87,78.566,67.01,227,1
2026-07-18T17:54:58.974Z,10396,40,13392,1992,8957,-385,12364,120,9688,-488,10818,-248,25.87,78.566,66.99,226,1
2026-07-18T17:54:59.275Z,16204,-536,7928,201,-4297,-308,12116,-24,9840,-1184,-6417,271,25.87,78.566,66.97,226,1
2026-07-18T17:54:59.639Z,13232,2132,9396,1890,4157,-318,10044,1480,11932,45,7263,-408,25.87,78.566,66.97,228,1
2026-07-18T17:54:59.994Z,12972,328,10752,1091,-7365,-739,13440,928,9040,-295,-7571,-276,25.86,78.548,66.96,227,1
2026-07-18T17:55:00.239Z,12440,-616,14016,2832,8351,-147,11880,-56,11532,528,6847,-28,25.87,78.566,66.96,227,1
2026-07-18T17:55:00.419Z,11944,348,13160,2118,2175,154,10200,464,13608,379,3068,272,25.87,78.566,66.95,227,1
2026-07-18T17:55:00.538Z,11928,880,11208,2054,-4057,325,12148,1180,9372,428,-3963,765,25.88,78.584,66.95,226,1
2026-07-18T17:55:01.137Z,13780,-220,10628,1787,4054,-268,13696,328,8708,-310,4275,-30,25.87,78.566,66.95,226,1
2026-07-18T17:55:05.339Z,2656,764,23192,2089,1913,-818,5808,748,19264,-189,3079,-538,25.88,78.584,66.93,227,1
2026-07-18T17:55:05.576Z,12056,44,13880,2189,-8810,153,12012,652,11804,818,-10117,591,25.9,78.62,66.95,226,1
2026-07-18T17:55:05.876Z,14284,848,9848,2983,6291,417,12808,1176,10176,559,8642,636,25.88,78.584,66.95,228,1
2026-07-18T17:55:06.120Z,8384,560,17472,1521,-5368,-283,9360,812,15200,-42,-5262,130,25.88,78.584,66.96,227,1
2026-07-18T17:55:06.597Z,6240,-356,21352,2148,2776,-200,7204,252,18332,214,2698,-45,25.88,78.584,66.99,226,1
2026-07-18T17:55:07.020Z,10376,376,15512,1444,-13740,104,11372,728,13784,432,-13258,649,25.88,78.584,67.01,227,1
2026-07-18T17:55:07.197Z,11236,952,14196,2334,5629,-163,11004,1336,12868,150,5249,36,25.88,78.584,67.01,226,1
2026-07-18T17:55:07.498Z,7144,-140,20164,2142,-10070,-228,9584,576,15328,647,-9691,332,25.88,78.584,67.01,227,1
2026-07-18T17:55:07.858Z,13576,272,13176,2408,9728,-37,12468,680,12488,270,9816,-36,25.88,78.584,66.99,227,1
2026-07-18T17:55:08.159Z,7668,776,19300,2502,-2193,1030,8524,1172,16908,1013,-2168,1304,25.88,78.584,67.01,227,1
2026-07-18T17:55:08.278Z,12196,212,11784,1483,3087,-996,12352,800,9540,-688,2765,-671,25.88,78.584,67.01,227,1
2026-07-18T17:55:08.520Z,4172,860,17796,1434,-9041,-898,5892,936,15280,-60,-7597,-388,25.88,78.584,67.01,227,1
2026-07-18T17:55:08.640Z,11400,224,12948,1822,6104,-879,10092,388,13004,-469,5837,-662,25.88,78.584,67.02,226,1
2026-07-18T17:55:08.940Z,6520,1308,16880,2728,-696,-636,7352,1492,14644,810,-663,-428,25.88,78.584,67.03,227,1
2026-07-18T17:55:09.476Z,8140,628,17836,2271,-7488,1191,8096,948,16448,1020,-9192,1557,25.9,78.62,67.06,227,1
2026-07-18T17:55:10.497Z,13616,-2128,12132,567,-4913,-1420,11512,-276,8984,-1409,-6357,-842,25.9,78.62,67.06,226,1
2026-07-18T17:55:10.676Z,10308,464,12928,2841,2039,6,10616,1020,9272,659,2370,336,25.91,78.638,67.06,226,1
2026-07-18T17:55:11.276Z,13624,-760,12948,1590,3337,-759,16928,680,6340,-355,-6,-566,25.87,78.566,67.08,227,1
2026-07-18T17:55:11.697Z,11180,-180,15428,-79,-37,-2333,12164,528,12168,-2284,1137,-1931,25.88,78.584,67.44,226,1
2026-07-18T17:55:12.058Z,13712,-168,11044,2240,-1934,-343,13580,496,8968,427,-1658,48,25.9,78.62,67.44,227,1
2026-07-18T17:55:12.239Z,7336,388,16816,2809,9915,-190,11640,1192,10788,-139,8669,-229,25.9,78.62,67.44,227,1
2026-07-18T17:55:12.421Z,13384,284,10704,3138,7110,-174,13848,1116,8104,703,7116,-19,25.9,78.62,67.47,226,1
2026-07-18T17:55:12.658Z,16888,304,8104,2053,-2636,445,15948,564,7192,653,-3574,619,25.88,78.584,67.53,227,1
2026-07-18T17:55:12.958Z,12128,112,13512,1212,6864,-927,13172,592,9800,-1099,6490,-649,25.9,78.62,67.58,227,1
2026-07-18T17:55:13.320Z,8068,120,16200,1943,2669,-400,9756,292,13348,-89,3405,-92,25.91,78.638,67.6,226,1
2026-07-18T17:55:13.441Z,13184,-608,11964,1828,-3715,-229,12700,16,9136,276,-4488,176,25.9,78.62,67.59,227,1
2026-07-18T17:55:13.559Z,12092,512,13916,2020,4964,-258,12516,904,11604,-130,6042,-63,25.91,78.638,67.58,227,1
2026-07-18T17:55:13.798Z,7368,280,19408,1953,4166,-646,9348,1072,15228,-361,4011,-260,25.91,78.638,67.55,227,1
2026-07-18T17:55:13.922Z,9252,952,18272,1353,-9611,-82,13172,1316,14928,193,-7423,472,25.91,78.638,67.54,228,1
2026-07-18T17:55:14.100Z,12568,-584,10924,1391,-2878,-639,13564,292,8036,-268,-2624,-249,25.92,78.656,67.52,227,1
2026-07-18T17:55:14.577Z,10000,1020,16600,1959,-404,-589,9484,1484,15712,-13,-463,-239,25.94,78.69200000000001,67.51,227,1
2026-07-18T17:55:14.699Z,14276,1044,12160,2753,3825,-267,13916,1236,10736,392,5898,-109,25.91,78.638,67.5,226,1
2026-07-18T17:55:15.059Z,14832,604,7276,1786,1104,-650,14548,480,5876,-189,4783,-518,25.91,78.638,67.48,228,1
2026-07-18T17:55:15.420Z,9700,-44,18212,2148,6306,-79,12404,444,13888,85,6386,-58,25.91,78.638,67.55,227,1
2026-07-18T17:55:15.839Z,12748,-196,12424,2665,5888,-224,14140,312,8632,351,4996,11,25.92,78.656,67.58,227,1
2026-07-18T17:55:15.959Z,12720,536,11928,1712,-5278,-458,11616,1136,11204,163,-6349,-21,25.91,78.638,67.68,227,1
2026-07-18T17:55:16.140Z,13284,-812,10628,2187,4088,-197,14204,892,7076,34,4663,188,25.91,78.638,67.74,227,1
2026-07-18T17:55:16.498Z,5876,-88,21288,2664,1706,-666,11960,164,12368,258,5330,-132,25.91,78.638,67.74,227,1
2026-07-18T17:55:16.977Z,10768,844,15712,2117,-3844,-126,11656,1144,13388,418,-2385,183,25.91,78.638,67.72,227,1
2026-07-18T17:55:17.159Z,13292,92,12280,1855,-3982,-27,14196,652,9284,226,-3249,293,25.91,78.638,67.74,228,1
2026-07-18T17:55:17.459Z,15156,1168,10280,1502,6497,-361,14864,1324,9060,-564,8962,-296,25.91,78.638,67.77,227,1
2026-07-18T17:55:17.876Z,13376,-1992,14340,2740,-9539,20,12248,192,11668,993,-9255,346,25.91,78.638,67.81,227,1
2026-07-18T17:55:18.240Z,14028,4,11184,1346,-690,-254,14608,316,8212,-287,-1510,38,25.91,78.638,67.85,227,1
2026-07-18T17:55:18.659Z,11892,-1204,11256,3138,6520,-257,13384,384,6616,553,6075,133,25.92,78.656,67.84,227,1
2026-07-18T17:55:19.439Z,10584,188,19152,2332,3647,-446,10676,968,16264,-29,4074,-197,25.94,78.69200000000001,67.84,227,1
2026-07-18T17:55:19.859Z,9120,-972,15560,2241,-6362,-588,9924,348,13092,482,-5797,-255,25.92,78.656,67.84,227,1
2026-07-18T17:55:20.277Z,12944,-724,15244,2226,-5185,-374,13600,252,11040,641,-5815,5,25.92,78.656,67.84,228,1
2026-07-18T17:55:20.938Z,13348,892,11720,1833,5916,82,12772,1100,11068,-127,5676,221,25.94,78.69200000000001,67.83,227,1
2026-07-18T17:55:21.302Z,9700,424,15796,1886,4102,-453,10080,696,14024,-341,3217,-202,25.91,78.638,67.81,228,1
2026-07-18T17:55:21.659Z,12040,244,12104,1576,-3185,-156,13568,352,8520,79,-4745,390,25.94,78.69200000000001,67.8,228,1
2026-07-18T17:55:22.321Z,14768,1424,7420,2706,1031,-354,12312,1072,9724,325,7655,-256,25.91,78.638,67.77,228,1
2026-07-18T17:55:22.560Z,13280,-760,9476,1816,-7703,-445,13524,256,6332,-136,-4912,50,25.92,78.656,67.77,228,1
2026-07-18T17:55:22.800Z,14116,16,9952,2150,5727,-395,14564,808,6432,-161,5709,-201,25.91,78.638,67.8,227,1
2026-07-18T17:55:23.099Z,6372,-2024,22736,2683,6889,-712,12168,440,12596,-85,6730,-327,25.92,78.656,67.8,227,1
2026-07-18T17:55:23.341Z,10812,648,12848,1991,-7723,-774,11696,920,9792,379,-9118,-326,25.92,78.656,67.8,226,1
2026-07-18T17:55:23.821Z,11516,268,14732,2457,7623,125,13004,796,10540,395,6981,304,25.91,78.638,67.83,227,1
2026-07-18T17:55:24.359Z,10268,688,14716,1761,2582,-393,9196,720,14276,-337,2839,-104,25.91,78.638,67.85,227,1
2026-07-18T17:55:24.721Z,9844,-52,15028,3103,-1829,214,12100,980,9712,1246,-6181,721,25.92,78.656,67.84,227,1
2026-07-18T17:55:25.322Z,8708,1304,16532,2448,282,-397,10504,1680,13632,-126,5557,105,25.92,78.656,67.81,227,1
2026-07-18T17:55:25.742Z,9052,-596,17112,2570,-8155,-199,13556,340,9568,853,-7805,205,25.91,78.638,67.77,228,1
2026-07-18T17:55:26.160Z,12944,-848,14112,1738,16991,-598,13260,-76,11912,-464,7077,-378,25.91,78.638,67.72,228,1
2026-07-18T17:55:26.460Z,10672,-1156,18652,1428,10865,-556,12036,336,13780,-740,7428,-450,25.91,78.638,67.71,228,1
2026-07-18T17:55:26.641Z,16360,616,10392,2340,-1976,-211,13416,984,10096,730,-6601,103,25.91,78.638,67.71,227,1
2026-07-18T17:55:28.322Z,14652,1900,11244,1824,10812,24,11404,1712,14868,-140,6165,147,25.91,78.638,67.71,227,1
2026-07-18T17:55:28.801Z,14564,-1108,13796,2030,18487,-518,13636,-116,11300,-530,8211,-343,25.91,78.638,67.74,227,1
2026-07-18T17:55:29.522Z,15340,48,12460,2300,1107,-159,9972,800,13740,644,-6948,252,25.91,78.638,67.78,228,1
2026-07-18T17:55:29.642Z,14500,-192,11292,2186,5060,-226,14960,696,7928,-98,5583,8,25.91,78.638,67.8,227,1
2026-07-18T17:55:29.880Z,16192,-596,12376,1186,-2459,-503,15172,28,10876,-154,-5341,-359,25.91,78.638,67.8,227,1
2026-07-18T17:55:30.181Z,14032,-84,10640,2044,3420,-208,14512,408,7444,-61,3928,7,25.9,78.62,67.8,228,1
2026-07-18T17:55:30.552Z,12780,860,12736,1197,9692,-143,11092,916,13728,-526,7735,-156,25.92,78.656,67.8,227,1
2026-07-18T17:55:30.722Z,8692,504,17044,1774,-4884,-570,9420,848,14892,162,-5510,-133,25.92,78.656,67.78,227,1
2026-07-18T17:55:31.024Z,11668,844,11872,1791,-12243,-452,13776,1944,9764,325,-11445,266,25.92,78.656,67.77,228,1
2026-07-18T17:55:31.205Z,13892,764,7048,1502,4420,-422,10412,532,9068,-572,4414,-140,25.92,78.656,67.75,227,1
2026-07-18T17:55:31.623Z,14760,68,10520,1985,2851,-375,15088,692,7544,-69,2754,-100,25.92,78.656,67.75,227,1
2026-07-18T17:55:32.043Z,7348,1056,18236,1136,7899,-153,8268,1384,16176,-841,4627,-179,25.91,78.638,67.74,227,1
2026-07-18T17:55:32.461Z,12384,-652,12060,1973,12854,-713,10264,336,11684,-188,8079,-605,25.91,78.638,67.72,227,1
2026-07-18T17:55:32.579Z,9088,964,12316,1802,-13281,-335,14644,516,6384,274,-6562,93,25.92,78.656,67.72,228,1
2026-07-18T17:55:33.123Z,11600,1072,11496,715,12410,-1074,9296,992,13680,-1273,6494,-913,25.92,78.656,67.71,228,1
2026-07-18T17:55:34.803Z,,,,,,,13716,1116,9660,-240,-7805,159,25.92,78.656,67.7,227,1
2026-07-18T17:55:35.104Z,0,0,0,0,0,0,13744,944,8608,-16,5140,72,25.95,78.71,67.7,228,1
2026-07-18T17:55:35.645Z,10520,-1092,15580,2218,9592,-560,11856,-68,10952,-309,7555,-285,25.94,78.69200000000001,67.68,228,1
2026-07-18T17:55:35.826Z,,,,,,,16992,176,2012,-78,-6382,7,25.94,78.69200000000001,67.68,226,1
2026-07-18T17:55:36.123Z,0,0,0,0,0,0,13796,76,8308,200,-8468,403,25.94,78.69200000000001,67.7,227,1
2026-07-18T17:55:36.242Z,14728,-464,9796,1618,1453,-198,15488,324,6080,-210,1142,80,25.94,78.69200000000001,67.71,227,1
2026-07-18T17:55:36.365Z,8980,620,15908,2415,5291,-309,12920,972,10616,37,9674,-227,25.94,78.69200000000001,67.71,227,1
2026-07-18T17:55:36.544Z,12364,876,11600,1886,-9291,224,11816,976,10768,587,-8305,640,25.94,78.69200000000001,67.7,227,1
2026-07-18T17:55:37.141Z,10928,-420,14552,2647,3891,-133,14992,-156,8820,418,5813,26,25.95,78.71,67.7,227,1
2026-07-18T17:55:37.263Z,10188,1600,14312,1375,138,-831,14760,1492,10084,-791,8694,-641,25.94,78.69200000000001,67.68,227,1
2026-07-18T17:55:37.379Z,11848,1136,13648,1490,-12968,-96,15084,996,9332,402,-11207,220,25.95,78.71,67.67,227,1
2026-07-18T17:55:37.626Z,12748,388,8236,1667,-1696,-392,14408,1012,4708,-249,-443,23,25.95,78.71,67.65,226,1
2026-07-18T17:55:37.925Z,8600,116,18604,1793,-5526,-166,9460,368,16068,301,-5354,206,25.95,78.71,67.65,227,1
2026-07-18T17:55:38.407Z,12480,-44,13560,1972,5840,-436,14264,548,8760,-282,7174,-285,25.94,78.69200000000001,67.64,228,1
2026-07-18T17:55:38.581Z,6836,220,19068,2135,-10585,-793,11768,1156,12356,294,-10121,-244,25.95,78.71,67.63,227,1
2026-07-18T17:55:38.825Z,9912,-324,13280,2495,-7074,6,12924,64,6576,785,-9038,423,25.95,78.71,67.65,227,1
2026-07-18T17:55:39.182Z,5644,628,19440,2044,-2741,-542,8428,1012,15404,-142,4475,227,25.95,78.71,67.65,228,1
2026-07-18T17:55:39.362Z,8032,664,16300,2134,-1053,-711,15444,1208,8120,-299,10356,-512,25.92,78.656,67.7,226,1
2026-07-18T17:55:39.603Z,10736,952,13784,2018,-9505,-229,10728,1132,12500,600,-8915,230,25.94,78.69200000000001,67.71,227,1
2026-07-18T17:55:39.724Z,13596,488,10752,2368,62,-769,14944,1208,7768,120,6211,-557,25.94,78.69200000000001,67.7,227,1
2026-07-18T17:55:40.085Z,12208,536,14612,2548,3976,-266,10532,1044,14716,11,4202,57,25.95,78.71,67.67,226,1
2026-07-18T17:55:40.444Z,16116,788,9444,1903,-2745,-357,14508,1004,9908,263,-3481,-78,25.95,78.71,67.65,227,1
2026-07-18T17:55:40.624Z,14512,88,11924,2092,-4498,204,13592,280,11504,607,-3502,547,25.95,78.71,67.63,226,1
2026-07-18T17:55:40.805Z,15496,1412,10992,2909,1991,547,15676,1864,8264,1339,-2633,739,25.96,78.72800000000001,67.62,227,1
2026-07-18T17:55:41.167Z,14232,972,9044,1912,4895,-878,15360,1176,5392,-607,6053,-763,25.98,78.764,67.6,227,1
2026-07-18T17:55:41.526Z,16184,48,7528,2101,-2727,-140,14424,732,4956,102,-2605,353,25.96,78.72800000000001,67.59,226,1
2026-07-18T17:55:41.884Z,13604,616,11680,1770,7928,-486,14712,464,7892,-529,7752,-289,25.95,78.71,67.6,227,1
2026-07-18T17:55:42.063Z,19716,556,7152,1373,9129,-324,11584,1084,12656,-620,7156,-113,25.96,78.72800000000001,67.62,227,1
2026-07-18T17:55:43.388Z,14036,864,9816,1513,6264,-372,12056,968,10128,-363,7661,-273,25.98,78.764,67.62,226,1
2026-07-18T17:55:43.748Z,14116,-388,10984,1654,-9576,-247,10912,844,10368,297,-14091,572,25.95,78.71,67.64,227,1
2026-07-18T17:55:44.526Z,10560,92,16548,1434,16179,13,9788,884,15908,-493,9270,57,25.96,78.72800000000001,67.68,227,1
2026-07-18T17:55:44.648Z,11324,-1632,15368,1944,-9693,-538,12800,-264,9752,235,-11736,28,25.96,78.72800000000001,67.76,227,1
2026-07-18T17:55:45.064Z,17444,592,11632,1099,-2430,-260,18048,1456,9496,-316,-4776,87,25.96,78.72800000000001,67.78,227,1
2026-07-18T17:55:45.184Z,15436,260,10296,2009,6207,-588,15228,700,8168,-225,7001,-383,25.98,78.764,67.8,227,1
2026-07-18T17:55:45.424Z,10952,-1424,19516,2128,11732,-32,10052,-156,15472,8,5750,134,25.98,78.764,67.89,226,1
2026-07-18T17:55:45.780Z,12332,-2020,13460,2676,-5110,720,13612,-588,10104,1620,-8793,1133,25.98,78.764,67.92,227,1
2026-07-18T17:55:45.960Z,14992,-632,8492,2138,-2355,-389,16412,712,3352,-78,-1405,110,25.98,78.764,67.93,227,1
2026-07-18T17:55:46.143Z,9840,-412,17852,974,6358,-455,10772,-72,16428,-1158,7680,-277,25.98,78.764,67.92,227,1
2026-07-18T17:55:46.384Z,16048,708,7412,1232,-12154,-107,17128,1572,5404,-35,-7904,232,25.96,78.72800000000001,67.88,227,1
2026-07-18T17:55:46.565Z,14812,940,9624,1088,-4461,-208,15152,1380,7060,-143,-6488,130,25.96,78.72800000000001,67.86,226,1
2026-07-18T17:55:46.863Z,17228,-100,7040,1768,3622,-434,16904,544,4656,-315,4156,-201,25.95,78.71,67.83,228,1
2026-07-18T17:55:47.340Z,18808,704,7180,1313,9921,-195,11720,256,13204,-580,7891,-197,25.98,78.764,67.82,227,1
2026-07-18T17:55:47.703Z,11016,416,11800,2590,-13201,-49,13760,1292,8064,1274,-11707,495,25.96,78.72800000000001,67.79,226,1
2026-07-18T17:55:47.885Z,16356,-280,8748,1717,-3551,-493,17284,568,4400,-45,-1598,-282,25.98,78.764,67.79,226,1
2026-07-18T17:55:48.062Z,14520,464,10532,2194,4088,-456,15656,1160,6536,-42,5535,-108,25.98,78.764,67.78,228,1
2026-07-18T17:55:48.186Z,10692,324,17488,1901,1682,-191,13184,700,12944,-42,3660,-64,25.98,78.764,67.76,228,1
2026-07-18T17:55:48.907Z,,,,,,,15844,772,3320,33,-8770,345,25.96,78.72800000000001,67.8,227,1
2026-07-18T17:55:49.140Z,0,0,0,0,0,0,15760,656,6944,-635,-9286,-9,25.96,78.72800000000001,67.83,227,1
2026-07-18T17:55:49.324Z,,,,,,,18436,976,1600,409,-5105,110,25.96,78.72800000000001,67.86,227,1
2026-07-18T17:55:49.626Z,0,0,0,0,0,0,11836,-4,9328,-307,8750,-224,25.98,78.764,67.86,227,1
2026-07-18T17:55:50.164Z,12528,-576,13928,1944,9583,-210,9408,680,13904,-250,8091,1,25.96,78.72800000000001,67.86,227,1
2026-07-18T17:55:50.284Z,12724,568,12168,1591,-12580,-162,12516,652,10196,635,-13083,247,25.98,78.764,67.86,227,1
2026-07-18T17:55:50.642Z,,,,,,,17032,272,2444,534,5298,297,25.96,78.72800000000001,67.86,230,1
2026-07-18T17:55:50.763Z,0,0,0,0,0,0,13828,44,6368,189,11370,-353,25.98,78.764,67.88,226,1
2026-07-18T17:55:50.943Z,11956,252,16872,790,6682,-1237,12404,252,14676,-1392,7832,-1148,25.96,78.72800000000001,67.88,227,1
2026-07-18T17:55:51.182Z,16376,60,11044,962,-7088,-63,15308,652,10020,-119,-9767,280,25.98,78.764,67.88,227,1
2026-07-18T17:55:51.722Z,,,,,,,16496,1164,4088,-51,-7144,325,25.96,78.72800000000001,67.88,227,1
2026-07-18T17:55:52.082Z,0,0,0,0,0,0,16240,972,5284,392,9391,-384,25.98,78.764,67.88,227,1
2026-07-18T17:55:52.262Z,9280,576,14820,1824,-7641,-349,8888,836,14160,654,-9608,160,25.96,78.72800000000001,67.86,227,1
2026-07-18T17:55:52.386Z,17872,1168,2484,2678,-1978,442,16388,1588,2524,948,-2774,666,25.96,78.72800000000001,67.86,227,1
2026-07-18T17:55:52.862Z,17460,-376,8188,1938,9047,-555,15892,148,7344,-510,9658,-534,25.96,78.72800000000001,67.86,228,1
2026-07-18T17:55:53.048Z,9852,500,16400,2831,1039,-349,14156,944,10636,367,7337,-35,25.96,78.72800000000001,67.85,228,1
2026-07-18T17:55:53.343Z,9724,548,17488,1859,-6260,-485,11380,1016,14172,202,-5289,-23,25.98,78.764,67.83,227,1
2026-07-18T17:55:53.465Z,13820,-892,14404,2234,14115,-140,10936,964,13748,-463,9247,-2,25.98,78.764,67.82,227,1
2026-07-18T17:55:53.768Z,13272,400,11796,2190,-13573,454,15536,728,7556,1048,-12108,903,25.98,78.764,67.83,228,1
2026-07-18T17:55:53.943Z,15572,-1656,6940,623,-10694,-148,15220,-72,4772,-634,-8277,391,25.98,78.764,67.82,228,1
2026-07-18T17:55:54.122Z,17132,308,7220,1598,9256,-509,16372,696,5328,-675,10525,-397,25.98,78.764,67.8,227,1
2026-07-18T17:55:54.307Z,13392,1084,11332,1204,-13367,-110,14088,904,8956,220,-12301,272,25.98,78.764,67.8,227,1
2026-07-18T17:55:54.484Z,17088,-1588,8228,1288,-9635,-414,15156,100,5364,30,-10357,74,25.98,78.764,67.8,226,1
2026-07-18T17:55:55.024Z,20544,2168,1644,1280,10497,-905,12732,844,7984,-908,7670,-1087,26.01,78.818,67.79,227,1
2026-07-18T17:55:55.323Z,20872,-52,6100,2260,10485,-264,15584,188,7392,157,6626,-142,25.98,78.764,67.78,227,1
2026-07-18T17:55:55.506Z,20756,-908,6440,1888,13024,-503,14836,192,9464,-337,8807,-360,25.99,78.782,67.78,226,1
2026-07-18T17:55:56.167Z,8984,84,18024,2285,-1300,-432,9672,448,16024,423,-1637,-133,25.99,78.782,67.76,227,1
2026-07-18T17:55:56.701Z,,,,,,,15640,144,6280,-235,7748,-192,26.01,78.818,67.75,227,1
2026-07-18T17:55:57.063Z,0,0,0,0,0,0,9396,752,16408,-307,-5103,-109,25.98,78.764,67.75,227,1
2026-07-18T17:55:57.302Z,15468,-1280,8620,2298,-11020,-296,,,,,,,25.98,78.764,67.75,226,1
2026-07-18T17:55:57.546Z,18440,-1488,5420,1882,-2086,-251,0,0,0,0,0,0,25.99,78.782,67.73,227,1
2026-07-18T17:55:57.785Z,8024,1140,16200,1451,11241,-61,8132,436,15992,-782,12331,41,26.01,78.818,67.72,228,1
2026-07-18T17:55:58.087Z,6096,-1116,19936,1739,-6167,-399,6212,-452,18072,476,-8067,-91,25.99,78.782,67.72,227,1
2026-07-18T17:55:58.322Z,13892,304,5388,1856,-9558,-100,15020,596,2536,237,-6232,254,25.99,78.782,67.71,227,1
2026-07-18T17:55:58.562Z,13968,-372,5900,2128,5259,-259,16148,28,1952,-135,6183,3,25.99,78.782,67.71,226,1
2026-07-18T17:55:58.805Z,8836,404,16620,2075,13978,-379,11180,692,13708,-807,16123,-156,26.01,78.818,67.71,227,1
2026-07-18T17:55:58.923Z,5208,400,20440,2474,-10207,-784,7588,588,17188,668,-8096,-369,25.99,78.782,67.73,227,1
2026-07-18T17:55:59.162Z,11960,340,11008,1684,-15575,-477,10456,2152,8712,518,-16648,163,26.01,78.818,67.75,227,1
2026-07-18T17:55:59.762Z,17512,-272,6960,1783,1357,-114,16980,608,3920,-109,208,142,26.01,78.818,67.75,227,1
2026-07-18T17:56:00.063Z,17208,-588,6448,3464,15707,-500,13684,500,6240,562,10571,-279,26.01,78.818,67.75,226,1
2026-07-18T17:56:00.358Z,11084,1168,15504,289,-19858,-592,10048,1740,13336,-132,-21321,116,26.01,78.818,67.75,227,1
2026-07-18T17:56:00.482Z,19900,-408,1776,1942,6128,-326,,,,,,,25.98,78.764,67.76,227,1
2026-07-18T17:56:00.963Z,12656,-944,11888,2262,12657,-726,0,0,0,0,0,0,25.99,78.782,67.75,227,1
2026-07-18T17:56:01.265Z,15500,-540,7748,2704,-8,-151,17220,468,2952,631,1487,97,25.99,78.782,67.73,227,1
2026-07-18T17:56:01.442Z,6392,144,19708,1937,-8243,-535,7284,552,17268,387,-8922,-99,25.98,78.764,67.72,227,1
2026-07-18T17:56:01.805Z,,,,,,,16144,220,4864,725,-895,29,25.96,78.72800000000001,67.75,227,1
2026-07-18T17:56:01.982Z,0,0,0,0,0,0,12112,52,10272,-320,10769,-439,25.96,78.72800000000001,67.76,227,1
2026-07-18T17:56:02.102Z,8808,-612,18044,1333,3327,-611,8568,72,16560,-497,548,-434,25.98,78.764,67.78,228,1
2026-07-18T17:56:02.882Z,,,,,,,12888,1444,10136,965,-11821,934,25.98,78.764,67.78,227,1
2026-07-18T17:56:03.364Z,,,,,,,16316,804,7284,-349,6808,-145,25.99,78.782,67.79,227,1
2026-07-18T17:56:03.724Z,0,0,0,0,0,0,9608,808,13184,298,12185,-678,25.98,78.764,67.8,227,1
2026-07-18T17:56:04.142Z,6864,1396,18444,1346,-12754,-740,8688,1820,15704,43,-11383,-241,25.96,78.72800000000001,67.82,228,1
2026-07-18T17:56:05.042Z,13560,-12,8644,1644,-9028,-244,15604,1380,5496,210,-9843,218,25.96,78.72800000000001,67.83,228,1
2026-07-18T17:56:05.822Z,18164,-440,5320,2556,-482,-249,17576,164,3236,667,291,-66,25.98,78.764,67.83,228,1
2026-07-18T17:56:06.002Z,19616,-252,6684,2321,10700,-362,14712,880,9804,-204,10690,-142,25.99,78.782,67.83,229,1
2026-07-18T17:56:06.244Z,,,,,,,15332,-124,8076,630,-11216,146,25.98,78.764,67.85,227,1
2026-07-18T17:56:06.601Z,0,0,0,0,0,0,15832,740,7072,-416,7804,-356,25.96,78.72800000000001,67.88,227,1
2026-07-18T17:56:07.082Z,6572,640,19108,2068,5837,-318,8672,1028,15200,-91,4772,-231,25.98,78.764,67.88,227,1
2026-07-18T17:56:07.449Z,8124,872,17768,1268,-7296,-987,9376,616,14636,-229,-7083,-571,25.96,78.72800000000001,67.88,227,1
2026-07-18T17:56:07.626Z,11200,852,12424,1291,-1772,-288,10172,1272,11672,-329,-770,98,25.99,78.782,67.86,230,1
2026-07-18T17:56:07.743Z,11960,156,12700,1222,-1913,-1228,13584,496,9760,-724,-1546,-925,25.98,78.764,67.89,229,1
2026-07-18T17:56:07.862Z,11944,-1264,15452,3680,200,-451,13800,156,9248,1247,1714,-185,25.96,78.72800000000001,67.95,229,1
2026-07-18T17:56:08.107Z,12532,80,13580,2050,-181,-490,12984,632,10840,110,-409,-162,25.99,78.782,67.97,228,1
2026-07-18T17:56:08.282Z,11936,444,14676,1895,-4552,-336,13172,748,11300,208,-3998,-7,25.98,78.764,68.07,228,1
2026-07-18T17:56:08.580Z,14512,672,10700,2314,-4794,312,15840,1244,9264,634,-4172,535,25.98,78.764,68.09,228,1
2026-07-18T17:56:08.826Z,11088,956,14980,2340,-5740,151,11180,1396,13700,792,-5393,509,26.01,78.818,68.09,228,1
2026-07-18T17:56:09.188Z,13868,-1036,12092,1971,2022,-636,13276,-404,10800,-63,1581,-398,25.99,78.782,68.15,229,1
2026-07-18T17:56:09.366Z,11056,708,16768,1325,-176,-533,10716,1668,14548,-601,-1863,-155,25.99,78.782,68.12,228,1
2026-07-18T17:56:09.602Z,14396,172,10348,2139,7031,-118,14232,784,8972,-311,9026,-50,25.98,78.764,68.09,228,1
2026-07-18T17:56:09.781Z,14684,-368,8184,1640,10040,-307,12500,-188,8504,-415,7486,-361,25.98,78.764,68.02,228,1
2026-07-18T17:56:09.902Z,16508,380,8288,1927,2654,-572,14600,860,8852,-334,7873,-385,25.96,78.72800000000001,67.96,227,1
2026-07-18T17:56:10.085Z,10496,844,13732,2131,-1241,-106,9912,944,13240,557,-998,115,25.96,78.72800000000001,67.95,228,1
2026-07-18T17:56:10.383Z,12044,-116,12160,1724,-8885,-249,14812,-56,5780,125,-6027,80,25.98,78.764,67.93,228,1
2026-07-18T17:56:10.505Z,5212,-32,18844,2526,482,-858,11172,-24,11512,-101,6974,-460,25.99,78.782,67.92,226,1
2026-07-18T17:56:11.282Z,14148,-880,15568,1819,-2418,-252,16496,-424,9236,261,-2299,-112,25.98,78.764,67.88,227,1
2026-07-18T17:56:11.400Z,11908,-452,15216,1991,6182,-396,13220,636,12908,-25,4565,-154,25.96,78.72800000000001,67.83,228,1
2026-07-18T17:56:11.822Z,9992,696,14516,2050,-162,-215,11284,864,11744,-24,3826,11,25.95,78.71,67.84,227,1
2026-07-18T17:56:12.242Z,9268,552,15872,1787,-536,-346,9988,724,13792,-26,-969,6,25.98,78.764,67.85,227,1
2026-07-18T17:56:12.422Z,11864,1492,14820,1297,-6116,-254,12392,1808,13856,-336,-5360,185,25.99,78.782,67.85,228,1
2026-07-18T17:56:12.542Z,15780,-56,8692,953,-338,-157,12948,44,8952,-435,-3841,-69,26.01,78.818,67.83,228,1
2026-07-18T17:56:12.843Z,13848,720,13132,1844,5090,-324,14628,564,10376,-327,5043,-177,25.98,78.764,67.85,227,1
2026-07-18T17:56:13.083Z,8008,-200,19728,2824,4560,-415,11840,484,13176,348,6431,-183,25.96,78.72800000000001,67.85,227,1
2026-07-18T17:56:13.322Z,8840,132,16836,2322,-7711,185,10112,592,14056,853,-7351,611,25.96,78.72800000000001,67.88,227,1
2026-07-18T17:56:13.740Z,13924,-112,11280,1805,2120,-444,13856,548,9008,-124,1876,-215,25.98,78.764,67.86,227,1
2026-07-18T17:56:13.922Z,10888,-320,17524,2545,3933,-266,11776,1196,13644,227,4512,64,25.98,78.764,67.88,227,1
2026-07-18T17:56:14.102Z,11768,1032,14792,1272,-8133,-62,13028,876,12924,-241,-6822,283,25.98,78.764,67.88,227,1
2026-07-18T17:56:14.942Z,18956,-268,3120,1303,-2605,-684,14328,564,5120,-674,-2730,-349,25.98,78.764,67.88,228,1
2026-07-18T17:56:15.122Z,15036,-444,9300,3029,4648,-213,15492,912,6820,554,6216,6,25.98,78.764,67.88,227,1
2026-07-18T17:56:15.243Z,18516,776,5764,1978,5549,-136,13840,1120,9944,-342,9402,-198,26.01,78.818,67.88,227,1
2026-07-18T17:56:15.662Z,12388,-16,10836,1976,-6729,-368,11500,652,9480,363,-6339,12,26.01,78.818,67.86,227,1
2026-07-18T17:56:16.201Z,14880,-272,11460,2394,-950,157,12552,808,11388,586,-1738,553,25.98,78.764,67.86,227,1
2026-07-18T17:56:16.864Z,,,,,,,15188,496,6636,-738,-3093,-101,26.02,78.836,67.85,227,1
2026-07-18T17:56:17.407Z,0,0,0,0,0,0,15348,632,7308,452,2355,6,25.99,78.782,67.86,228,1
2026-07-18T17:56:17.944Z,11456,28,15280,1888,3110,-570,11184,364,13128,-176,2707,-345,26.01,78.818,67.83,229,1
2026-07-18T17:56:18.185Z,14880,708,8192,1824,-2068,-444,13532,1544,7516,-67,-3212,-62,25.99,78.782,67.83,226,1
2026-07-18T17:56:18.482Z,14672,968,11160,2054,5705,-371,14068,1528,9580,-159,5280,-158,25.99,78.782,67.83,227,1