Timestamp,MPU1_Accel_X,MPU1_Accel_Y,MPU1_Accel_Z,MPU1_Gyro_X,MPU1_Gyro_Y,MPU1_Gyro_Z,MPU2_Accel_X,MPU2_Accel_Y,MPU2_Accel_Z,MPU2_Gyro_X,MPU2_Gyro_Y,MPU2_Gyro_Z,Temp_C,Temp_F,Humidity,Gas_Analog,Gas_Digital
2026-07-18T17:17:06.845Z,3584,704,17524,1984,-74,-319,4200,716,15608,78,43,-83,27.23,81.014,61.88,241,1
2026-07-18T17:17:07.086Z,3520,664,17580,1975,-2,-316,4068,684,15664,67,94,-23,27.22,80.996,61.91,241,1
2026-07-18T17:17:07.564Z,3480,684,17588,1941,-14,-342,4076,704,15504,68,106,-47,27.22,80.996,61.91,242,1
2026-07-18T17:17:07.989Z,3508,600,17652,1996,-39,-320,4164,640,15668,42,106,-42,27.23,81.014,61.91,241,1
2026-07-18T17:17:08.539Z,3508,660,17584,1943,-24,-306,4104,732,15640,46,70,-19,27.23,81.014,61.91,240,1
2026-07-18T17:17:08.885Z,3528,608,17640,1997,-24,-338,4148,736,15548,61,98,-86,27.22,80.996,61.93,241,1
2026-07-18T17:17:09.063Z,3476,672,17564,1947,-6,-319,4176,668,15640,36,76,-42,27.22,80.996,61.95,240,1
2026-07-18T17:17:09.189Z,3524,664,17444,1962,26,-333,4216,772,15752,61,98,-47,27.19,80.94200000000001,61.97,241,1
2026-07-18T17:17:09.489Z,3532,684,17428,1991,-54,-305,4212,688,15692,81,58,-18,27.19,80.94200000000001,61.98,241,1
2026-07-18T17:17:10.085Z,3488,644,17592,1977,-47,-328,4192,768,15676,73,81,-6,27.2,80.96,61.98,241,1
2026-07-18T17:17:10.389Z,3572,620,17536,2002,-32,-312,4152,720,15636,40,89,-20,27.19,80.94200000000001,61.98,240,1
2026-07-18T17:17:10.926Z,3512,624,17580,1997,0,-282,4092,748,15660,84,123,-11,27.2,80.96,62,240,1
2026-07-18T17:17:11.285Z,3564,672,17564,1959,32,-328,4132,684,15580,63,86,-59,27.2,80.96,61.98,241,1
2026-07-18T17:17:11.585Z,3552,740,17524,1972,-32,-313,4116,696,15612,77,112,-13,27.18,80.924,62.01,239,1
2026-07-18T17:17:12.372Z,3556,596,17596,1959,-34,-324,4148,740,15612,61,99,-39,27.19,80.94200000000001,62.01,240,1
2026-07-18T17:17:12.786Z,3556,688,17588,1981,-9,-334,4092,700,15564,41,85,-37,27.14,80.852,62.07,240,1
2026-07-18T17:17:13.089Z,3540,656,17616,1986,-12,-299,4144,736,15700,62,77,-33,27.12,80.816,62.14,240,1
2026-07-18T17:17:13.389Z,3472,580,17488,1977,-42,-315,4152,744,15684,31,63,-42,27.11,80.798,62.19,240,1
2026-07-18T17:17:13.744Z,3492,660,17608,1959,-12,-328,4148,708,15676,44,71,-56,27.11,80.798,62.21,239,1
2026-07-18T17:17:13.872Z,3580,652,17536,1962,1,-318,4120,652,15668,80,87,-27,27.11,80.798,62.23,241,1
2026-07-18T17:17:14.163Z,5720,-588,12492,2842,5487,-1866,4424,1216,13500,1015,4222,-1776,27.1,80.78,62.29,241,1
2026-07-18T17:17:14.586Z,,,,,,,2576,396,16700,1180,-140,-1532,27.08,80.744,62.33,240,1
2026-07-18T17:17:14.886Z,0,0,0,0,0,0,100,2512,18504,1218,-2277,-651,27.04,80.672,62.39,241,1
2026-07-18T17:17:15.063Z,0,0,0,0,0,0,1120,308,13348,190,-1575,-1008,27.03,80.654,62.4,241,1
2026-07-18T17:17:15.739Z,1636,-168,12728,1301,-2440,-2179,1292,1492,12104,-205,-2020,-2609,27.03,80.654,62.38,240,1
2026-07-18T17:17:16.025Z,4528,-2024,16400,494,1425,-3073,,,,,,,27.04,80.672,62.36,239,1
2026-07-18T17:17:16.222Z,-4268,3244,23524,229,1458,-2722,0,0,0,0,0,0,27.02,80.636,62.33,240,1
2026-07-18T17:17:16.325Z,2552,-2808,19668,519,2507,-2013,5780,456,16804,-806,2683,-2226,26.97,80.54599999999999,62.33,240,1
2026-07-18T17:17:16.564Z,4108,1204,11912,1567,4646,-2642,3100,1744,14344,-149,-2134,-1953,26.93,80.474,62.33,237,1
2026-07-18T17:17:16.807Z,3000,-6284,2168,-5008,13642,1827,,,,,,,26.89,80.402,62.3,239,1
2026-07-18T17:17:17.170Z,1672,564,27784,-2024,7145,1033,,,,,,,26.85,80.33,62.31,237,1
2026-07-18T17:17:17.422Z,172,5268,15512,2826,-53,514,0,0,0,0,0,0,26.84,80.312,62.33,237,1
2026-07-18T17:17:17.943Z,4868,1380,16680,2484,-2734,872,,,,,,,26.8,80.24000000000001,62.48,235,1
2026-07-18T17:17:18.072Z,5304,-672,12132,2628,-1055,36,0,0,0,0,0,0,26.81,80.258,62.55,238,1
2026-07-18T17:17:18.422Z,1520,176,17928,2939,7024,-983,1732,2544,16648,923,2586,1156,26.8,80.24000000000001,62.58,237,1
2026-07-18T17:17:18.603Z,-576,-1336,22252,1982,-1030,312,,,,,,,26.8,80.24000000000001,62.61,238,1
2026-07-18T17:17:18.843Z,2140,40,14924,1759,1714,-895,0,0,0,0,0,0,26.8,80.24000000000001,62.63,238,1
2026-07-18T17:17:19.089Z,5276,2464,16908,1113,1802,583,7980,708,14040,-986,1562,1695,26.82,80.276,62.63,240,1
2026-07-18T17:17:19.323Z,5844,3460,15148,2747,1928,175,4804,656,14140,669,537,394,26.81,80.258,62.67,237,1
2026-07-18T17:17:19.572Z,,,,,,,12888,-20,4972,282,16778,328,26.8,80.24000000000001,62.7,237,1
2026-07-18T17:17:19.744Z,0,0,0,0,0,0,,,,,,,26.8,80.24000000000001,62.72,235,1
2026-07-18T17:17:20.043Z,-1184,348,20856,4904,-10053,-1840,0,0,0,0,0,0,26.8,80.24000000000001,62.74,237,1
2026-07-18T17:17:20.225Z,3284,-608,16068,925,1075,-2317,5412,820,11496,-738,-2593,-104,26.76,80.168,62.81,238,1
2026-07-18T17:17:20.290Z,-4700,-1036,24396,3185,-4635,-528,1396,-196,15844,826,1168,-1026,26.74,80.132,62.85,239,1
2026-07-18T17:17:20.589Z,4172,2380,15180,560,-894,-1580,3940,324,17772,-861,-1510,-2019,26.73,80.114,62.85,239,1
2026-07-18T17:17:20.839Z,4204,-1292,19852,4127,-2685,-1449,7696,-716,14084,1518,-313,-666,26.73,80.114,62.85,239,1
2026-07-18T17:17:21.255Z,-472,-5232,19592,3885,-1557,-1192,4172,-800,15444,1378,134,-247,26.7,80.06,62.87,238,1
2026-07-18T17:17:21.489Z,,,,,,,4708,3404,17204,-8,989,-913,26.67,80.006,62.87,238,1
2026-07-18T17:17:21.667Z,0,0,0,0,0,0,,,,,,,26.63,79.934,62.91,238,1
2026-07-18T17:17:22.263Z,4964,2796,13464,-2387,3054,-1346,0,0,0,0,0,0,26.63,79.934,62.93,239,1
2026-07-18T17:17:22.863Z,-112,-2460,26548,1688,9726,-3030,3836,-904,15296,119,-1,-1,26.56,79.80799999999999,63.06,239,1
2026-07-18T17:17:23.106Z,3372,1636,11856,3510,-5155,-1082,,,,,,,26.56,79.80799999999999,63.08,237,1
2026-07-18T17:17:23.406Z,1076,-668,1056,133,-913,4610,0,0,0,0,0,0,26.49,79.682,63.12,237,1
2026-07-18T17:17:23.539Z,32767,-2604,32767,-5483,13627,5412,11904,-1584,29940,-5296,2118,2575,26.48,79.664,63.13,237,1
2026-07-18T17:17:23.944Z,7088,-2644,25836,-900,463,2371,10564,28,18100,-2196,3535,1690,26.47,79.646,63.17,237,1
2026-07-18T17:17:24.256Z,2052,5624,17564,2509,544,279,0,0,0,0,0,0,26.45,79.61,63.2,241,1
2026-07-18T17:17:24.607Z,5503,-1,-1,-1,-1,-1,11032,-1132,15508,31,1850,-182,26.43,79.574,63.24,238,1
2026-07-18T17:17:25.222Z,992,-1708,22372,770,-792,1704,7992,1228,13744,-2005,4221,1981,26.41,79.538,63.35,237,1
2026-07-18T17:17:25.563Z,2532,2312,19104,-272,-2797,-172,7996,-1652,15836,-1407,-2181,-226,26.43,79.574,63.41,238,1
2026-07-18T17:17:25.686Z,,,,,,,-1796,2568,18920,-591,887,-18,26.41,79.538,63.51,237,1
2026-07-18T17:17:26.163Z,0,0,0,0,0,0,4364,1004,13680,1405,-1211,1039,26.41,79.538,63.55,238,1
2026-07-18T17:17:26.763Z,4212,-2524,19672,2459,1965,-364,,,,,,,26.44,79.592,63.57,238,1
2026-07-18T17:17:27.372Z,1884,1144,19608,3900,-627,240,0,0,0,0,0,0,26.43,79.574,63.62,242,1
2026-07-18T17:17:27.964Z,5964,-384,17020,1083,3559,124,8288,-296,12140,-167,1839,943,26.41,79.538,63.64,237,1
2026-07-18T17:17:28.263Z,2088,2520,18860,3718,-2969,-272,,,,,,,26.44,79.592,63.71,237,1
2026-07-18T17:17:28.639Z,4872,508,15748,2472,-174,605,0,0,0,0,0,0,26.43,79.574,63.73,238,1
2026-07-18T17:17:28.924Z,-1388,2756,20991,-1,-1,-1,-1564,2052,16660,-126,-3691,726,26.41,79.538,63.73,235,1
2026-07-18T17:17:29.045Z,2828,5092,-3400,476,-17604,330,,,,,,,26.4,79.52,63.84,236,1
2026-07-18T17:17:29.164Z,2652,152,12752,2774,-1874,-1338,0,0,0,0,0,0,26.4,79.52,63.91,241,1
2026-07-18T17:17:29.345Z,,,,,,,,,,,,,26.4,79.52,63.92,237,1
2026-07-18T17:17:29.825Z,0,0,0,0,0,0,0,0,0,0,0,0,26.4,79.52,63.94,239,1
2026-07-18T17:17:30.189Z,4632,3552,15704,1524,809,-1228,2912,1100,15488,-348,416,-1145,26.4,79.52,63.94,238,1
2026-07-18T17:17:30.787Z,5412,1700,15832,306,7,-1535,5096,692,11772,-1601,-432,-1717,26.36,79.44800000000001,63.98,239,1
2026-07-18T17:17:31.272Z,-1160,2756,24040,-907,-3406,-486,,,,,,,26.36,79.44800000000001,64.04,238,1
2026-07-18T17:17:31.507Z,2496,-2620,16564,2751,638,-1582,0,0,0,0,0,0,26.33,79.39399999999999,64.12,239,1
2026-07-18T17:17:31.806Z,9216,-96,8624,3356,7430,-2966,0,0,0,0,0,0,26.29,79.322,64.21,238,1
2026-07-18T17:17:31.987Z,-3960,1092,12544,3492,-2425,2188,-704,-3456,8580,2907,-2806,2190,26.25,79.25,64.19,239,1
2026-07-18T17:17:32.527Z,,,,,,,,,,,,,26.25,79.25,64.19,238,1
2026-07-18T17:17:33.010Z,0,0,0,0,0,0,0,0,0,0,0,0,26.2,79.16,64.2,238,1
2026-07-18T17:17:33.545Z,1824,-2160,21192,3298,-2615,-165,0,0,0,0,0,0,26.18,79.124,64.23,238,1
2026-07-18T17:17:33.788Z,1580,1332,10668,1571,946,-697,,,,,,,26.17,79.10600000000001,64.35,237,1
2026-07-18T17:17:33.966Z,2056,648,17184,2620,3653,-887,0,0,0,0,0,0,26.17,79.10600000000001,64.5,238,1
2026-07-18T17:17:34.208Z,3788,1732,9936,519,2686,-52,2624,-640,10164,-825,929,949,26.18,79.124,64.58,238,1
2026-07-18T17:17:34.327Z,-1468,1924,18136,2680,-1397,228,2212,1240,13836,509,-1048,1090,26.16,79.088,64.65,238,1
2026-07-18T17:17:34.506Z,4336,4152,11972,1980,1230,1018,612,708,12740,569,533,-330,26.17,79.10600000000001,64.71,239,1
2026-07-18T17:17:34.745Z,15900,16,7748,2115,11197,965,9500,-284,8704,128,4541,1585,26.18,79.124,64.73,237,1
2026-07-18T17:17:34.926Z,2372,1024,15700,1705,1225,-467,3548,936,13688,-150,171,44,26.18,79.124,64.74,240,1
2026-07-18T17:17:35.226Z,-2368,-3288,23004,5928,-2044,-1657,228,336,18032,3532,-1353,-655,26.2,79.16,64.75,238,1
2026-07-18T17:17:35.773Z,5532,-172,16548,1078,1738,-1648,2036,108,17208,-360,2099,-2186,26.16,79.088,64.79,238,1
2026-07-18T17:17:35.886Z,2068,-1032,13436,2349,-136,-2531,1940,-272,13260,467,-1230,-2625,26.16,79.088,64.83,237,1
2026-07-18T17:17:36.247Z,5456,-4176,21844,1481,-1607,-1462,9556,-624,15900,-931,1633,-2174,26.14,79.05199999999999,64.85,238,1
2026-07-18T17:17:36.427Z,2832,252,16436,-1,-1,-1,,,,,,,26.13,79.03399999999999,64.87,238,1
2026-07-18T17:17:36.788Z,10332,3796,8832,724,5561,-2049,0,0,0,0,0,0,26.12,79.016,64.85,239,1
2026-07-18T17:17:37.026Z,,,,,,,6908,-1952,14080,1187,1410,-540,26.1,78.98,64.85,238,1
2026-07-18T17:17:37.267Z,0,0,0,0,0,0,9284,-3932,2324,719,-8164,1727,26.1,78.98,64.85,239,1
2026-07-18T17:17:37.627Z,-2104,2804,22296,1962,-10680,1544,4536,308,18512,-21,-3467,522,26.07,78.926,64.85,238,1
2026-07-18T17:17:37.806Z,7400,5652,20344,1209,-5665,1105,,,,,,,26.03,78.854,64.84,237,1
2026-07-18T17:17:38.226Z,-36,2012,19560,2043,-1185,214,0,0,0,0,0,0,26.05,78.89,64.9,237,1
2026-07-18T17:17:38.473Z,2968,320,19548,2232,-533,313,4124,388,17160,284,216,431,26.05,78.89,64.92,237,1
2026-07-18T17:17:38.773Z,16484,-304,2312,4130,15004,1444,1792,3024,13268,920,3824,272,26.05,78.89,64.92,237,1
2026-07-18T17:17:39.024Z,3572,2704,14652,2310,-1644,1132,4768,1628,13580,294,1795,-197,26.05,78.89,64.93,239,1
2026-07-18T17:17:39.308Z,5332,1660,13148,2023,-4545,-347,816,2448,18284,-286,-2584,1132,26.07,78.926,64.94,238,1
2026-07-18T17:17:39.545Z,1972,792,14848,1867,-5115,533,5160,1168,15452,-228,-3074,-1,26.06,78.908,64.94,238,1
2026-07-18T17:17:39.740Z,1996,836,12768,3168,6392,-980,3372,32,8892,778,3889,241,26.05,78.89,64.96,238,1
2026-07-18T17:17:40.026Z,5084,644,15688,2211,1179,163,4252,1628,15880,79,842,170,26.06,78.908,64.96,239,1
2026-07-18T17:17:40.208Z,2428,412,19700,1099,-4323,536,,,,,,,26.05,78.89,64.98,236,1
2026-07-18T17:17:40.388Z,7952,312,15380,1520,-950,404,0,0,0,0,0,0,26.06,78.908,65.04,237,1
2026-07-18T17:17:40.808Z,13128,2040,7392,4358,12699,-428,8756,1228,8728,1921,6705,209,26.07,78.926,65.04,237,1
2026-07-18T17:17:41.165Z,12488,2940,8932,1370,4584,-621,11752,2204,9552,-469,682,-568,26.06,78.908,65.08,237,1
2026-07-18T17:17:41.343Z,3760,616,18216,1885,-271,-347,4632,656,16320,21,-153,-13,26.07,78.926,65.09,238,1
2026-07-18T17:17:41.645Z,3744,744,17652,1994,-66,-278,4556,764,15648,73,60,-17,26.07,78.926,65.09,238,1
2026-07-18T17:17:41.825Z,3600,576,17432,1980,29,-341,4340,636,15548,27,143,-99,26.07,78.926,65.1,238,1
2026-07-18T17:17:41.945Z,3596,660,17548,1982,-12,-325,4356,660,15640,58,101,-56,26.07,78.926,65.1,237,1
2026-07-18T17:17:42.427Z,3596,528,17472,1992,-6,-344,4328,620,15616,46,83,-42,26.07,78.926,65.1,238,1
2026-07-18T17:17:42.608Z,3596,596,17500,1941,-29,-313,4280,676,15688,67,113,-81,26.09,78.962,65.1,237,1
2026-07-18T17:17:42.790Z,6204,-552,13460,3587,-1745,-708,6052,192,14068,1356,-863,-406,26.07,78.926,65.12,238,1
2026-07-18T17:17:42.905Z,8928,-1736,15100,3968,558,-1644,0,0,0,0,0,0,26.06,78.908,65.11,238,1
2026-07-18T17:17:43.027Z,1844,1312,16084,-301,-1222,-1792,6216,-1420,9576,-1152,-943,-2379,26.06,78.908,65.12,238,1
2026-07-18T17:17:43.146Z,4964,496,18544,4235,-4909,-1052,3448,56,18444,1649,-2771,-1203,26.05,78.89,65.12,238,1
2026-07-18T17:17:43.389Z,2152,-164,19456,1105,-1296,-1510,3208,512,13312,-476,140,-2310,26.03,78.854,65.14,238,1
2026-07-18T17:17:43.509Z,,,,,,,3264,-252,16600,326,-923,-1791,26.05,78.89,65.14,287,1
2026-07-18T17:17:43.808Z,0,0,0,0,0,0,348,3700,21348,-1000,-5975,-465,26.05,78.89,65.12,239,1
2026-07-18T17:17:43.927Z,1384,-592,18324,616,295,-995,5520,-544,13792,-1025,-1,-1,26.03,78.854,65.09,238,1
2026-07-18T17:17:44.046Z,5396,2836,22320,2606,4657,-1159,0,0,0,0,0,0,26.03,78.854,65.08,237,1
2026-07-18T17:17:44.226Z,2936,-1984,26392,1856,-5450,-1403,5108,-1096,21844,356,-3079,-969,26.02,78.836,65.06,237,1
2026-07-18T17:17:44.466Z,3952,980,16968,2018,524,-165,4424,960,14864,50,649,123,25.99,78.782,65.09,237,1
2026-07-18T17:17:44.888Z,4156,616,18120,2020,178,-299,4864,724,16120,68,224,2,25.96,78.72800000000001,65.12,238,1
2026-07-18T17:17:45.140Z,3692,608,17576,1971,28,-343,4336,708,15680,98,92,-8,25.98,78.764,65.13,238,1
2026-07-18T17:17:45.243Z,3644,720,17648,1957,-118,-309,4444,716,15608,35,22,-6,25.98,78.764,65.14,238,1
2026-07-18T17:17:45.374Z,3524,7092,18668,3357,-9014,1428,2040,7068,26112,762,-5890,1062,25.98,78.764,65.14,237,1
2026-07-18T17:17:45.666Z,8336,5672,14832,1859,3036,165,8680,2212,12472,460,2176,711,25.98,78.764,65.14,237,1
2026-07-18T17:17:45.857Z,4212,-2400,16224,198,1082,-128,,,,,,,25.96,78.72800000000001,65.14,238,1
2026-07-18T17:17:46.205Z,,,,,,,,,,,,,25.96,78.72800000000001,65.14,236,1
2026-07-18T17:17:46.445Z,0,0,0,0,0,0,0,0,0,0,0,0,25.96,78.72800000000001,65.14,237,1
2026-07-18T17:17:46.824Z,1116,1764,14752,4172,7516,-603,3404,2480,14108,1806,4175,-1008,25.96,78.72800000000001,65.14,237,1
2026-07-18T17:17:47.106Z,5824,2916,18768,3002,-490,448,2512,896,18472,1073,-2173,1177,25.96,78.72800000000001,65.14,238,1
2026-07-18T17:17:47.473Z,2096,-1336,9124,2454,73,462,4304,392,10904,605,652,-501,25.98,78.764,65.14,236,1
2026-07-18T17:17:47.591Z,2668,724,25360,2017,-3986,-413,,,,,,,25.95,78.71,65.16,236,1
2026-07-18T17:17:48.067Z,7132,-3412,21196,3270,1520,47,0,0,0,0,0,0,25.96,78.72800000000001,65.17,237,1
2026-07-18T17:17:48.367Z,1596,2076,17572,814,-532,73,1340,196,15628,-461,-421,-1019,25.95,78.71,65.19,237,1
2026-07-18T17:17:48.546Z,3888,-1708,17424,2061,-3483,407,3716,-1772,15424,746,147,-553,25.95,78.71,65.19,237,1
2026-07-18T17:17:48.846Z,-3488,3440,20880,1679,-1703,762,3048,2880,13348,-630,-1026,645,25.96,78.72800000000001,65.22,236,1
2026-07-18T17:17:49.224Z,272,-1316,20960,762,1958,-114,2492,812,18260,-1138,651,1402,25.96,78.72800000000001,65.23,236,1
2026-07-18T17:17:49.873Z,4864,5284,12900,1622,1678,5,2948,3608,19864,-262,3583,-1,25.95,78.71,65.23,234,1
2026-07-18T17:17:50.346Z,17564,780,5888,3716,8066,1672,15180,-608,3308,1421,8501,1052,25.92,78.656,65.28,235,1
2026-07-18T17:17:50.657Z,7484,-1964,13348,4302,30932,1329,10260,19,-1,-1,-1,-1,25.95,78.71,65.29,237,1
2026-07-18T17:17:50.827Z,1972,-2592,-2220,-309,2723,-1,-1776,1960,4288,-1038,1702,-914,25.95,78.71,65.29,234,1
2026-07-18T17:17:50.946Z,7884,-316,14500,-337,-1210,-1034,5604,-2152,15712,-565,-931,-1353,25.96,78.72800000000001,65.31,237,1
2026-07-18T17:17:51.140Z,6416,-1244,11360,3979,7084,-3428,3516,2720,10876,633,4741,-1863,25.94,78.69200000000001,65.31,236,1
2026-07-18T17:17:51.247Z,4212,-492,18812,1039,1478,-1017,,,,,,,25.95,78.71,65.32,237,1
2026-07-18T17:17:51.491Z,7328,-724,24948,3741,495,-1910,0,0,0,0,0,0,25.94,78.69200000000001,65.35,236,1
2026-07-18T17:17:51.729Z,1660,-1776,26400,641,1641,-1852,-120,-656,25140,-1492,-2679,-472,25.92,78.656,65.33,237,1
2026-07-18T17:17:52.208Z,3284,1524,16804,1549,-679,-1242,1980,1276,16044,-304,-125,-728,25.91,78.638,65.35,236,1
2026-07-18T17:17:52.328Z,3380,-1688,21332,3130,-2030,-1062,6052,1052,16588,490,-410,-1617,25.9,78.62,65.34,236,1
2026-07-18T17:17:52.757Z,268,856,22124,523,-1869,-369,372,-724,16312,-1700,1145,-75,25.88,78.584,65.33,237,1
2026-07-18T17:17:53.109Z,11140,-664,14824,984,3569,-1865,3412,3328,18120,-566,1875,-1503,25.88,78.584,65.33,239,1
2026-07-18T17:17:53.242Z,6404,244,14152,1499,-2792,-1162,,,,,,,25.84,78.512,65.32,236,1
2026-07-18T17:17:53.644Z,-1692,3916,3804,-1438,-1546,4527,0,0,0,0,0,0,25.84,78.512,65.32,236,1
2026-07-18T17:17:54.309Z,2924,8820,-2976,-1488,-286,1539,-1244,3320,10468,-1849,-124,1509,25.84,78.512,65.31,238,1
2026-07-18T17:17:54.669Z,8204,3352,9416,1450,2170,436,4820,2144,15368,-506,-1376,827,25.81,78.458,65.32,237,1
2026-07-18T17:17:55.147Z,6992,2640,14336,551,-1662,563,1188,1208,19832,-1172,-3619,1659,25.8,78.44,65.37,236,1
2026-07-18T17:17:55.809Z,4248,4572,17456,1431,2311,316,5012,2476,14744,-542,3117,1119,25.79,78.422,65.46,236,1
2026-07-18T17:17:56.109Z,5176,4036,21752,986,-6379,1551,9644,452,16648,-303,-1820,401,25.77,78.386,65.53,237,1
2026-07-18T17:17:56.409Z,4564,-388,8984,1596,4184,-820,-160,1668,13072,115,-1128,-247,25.76,78.368,65.56,236,1
2026-07-18T17:17:56.947Z,,,,,,,4000,-792,14180,146,-1105,1014,25.77,78.386,65.59,236,1
2026-07-18T17:17:57.728Z,0,0,0,0,0,0,2048,876,10908,1066,4500,-553,25.8,78.44,65.6,236,1
2026-07-18T17:17:58.148Z,7632,-2416,9836,2451,7753,433,10348,816,4804,-81,3815,1344,25.77,78.386,65.62,236,1
2026-07-18T17:17:58.275Z,2320,1156,14640,2240,555,316,2844,1120,13128,292,1222,580,25.8,78.44,65.62,237,1
2026-07-18T17:17:58.394Z,3228,-3464,18488,2224,2749,-1870,7032,-3184,12104,436,1873,-1926,25.79,78.422,65.64,236,1
2026-07-18T17:17:58.760Z,4732,-900,23932,54,3289,-524,8468,-1540,18700,-2253,5625,-1025,25.79,78.422,65.65,237,1
2026-07-18T17:17:59.048Z,2652,164,15912,2157,-1625,-986,5300,-1980,13280,387,5000,-1980,25.77,78.386,65.7,238,1
2026-07-18T17:17:59.291Z,5056,664,21036,1647,-2971,-1890,0,0,0,0,0,0,25.79,78.422,65.7,237,1
2026-07-18T17:17:59.711Z,8296,-1140,23112,2837,7490,-3365,7344,1856,22508,375,3548,-1092,25.76,78.368,65.74,236,1
2026-07-18T17:18:00.070Z,7652,3060,5756,2140,1145,-1513,1580,3544,12744,50,-2687,-692,25.76,78.368,65.76,237,1
2026-07-18T17:18:00.310Z,6592,-1584,18592,1865,4701,-1546,6136,468,16132,-77,2417,-1480,25.76,78.368,65.76,237,1
2026-07-18T17:18:00.551Z,3660,736,17344,1930,-15,-289,4308,720,15388,27,80,-45,25.73,78.314,65.77,236,1
2026-07-18T17:18:00.731Z,,,,,,,5700,3376,16936,697,-1473,482,25.72,78.29599999999999,65.82,235,1
2026-07-18T17:18:00.910Z,0,0,0,0,0,0,4296,120,10988,1541,3787,427,25.7,78.25999999999999,65.83,236,1
2026-07-18T17:18:01.211Z,8064,-1620,14424,3369,1875,142,5312,2848,15356,439,711,974,25.68,78.224,65.9,237,1
2026-07-18T17:18:01.568Z,,,,,,,612,1952,19780,457,-6930,2005,25.68,78.224,66.01,236,1
2026-07-18T17:18:02.009Z,0,0,0,0,0,0,3188,-156,12924,779,1465,-10,25.69,78.242,66.05,236,1
2026-07-18T17:18:02.528Z,-576,3644,12964,676,1178,521,,,,,,,25.68,78.224,66.06,235,1
2026-07-18T17:18:02.830Z,3464,704,17636,1992,177,-389,0,0,0,0,0,0,25.7,78.25999999999999,66.11,236,1
2026-07-18T17:18:03.249Z,-513,-1,-1,-1,-1,-1,2768,4752,12060,-945,2680,-2074,25.69,78.242,66.11,235,1
2026-07-18T17:18:03.971Z,-984,1004,26432,2441,2376,-1011,1732,2560,20556,614,-256,-1271,25.68,78.224,66.1,236,1
2026-07-18T17:18:04.092Z,1612,2808,19812,1534,826,-1582,324,932,19468,-229,-1223,-1981,25.7,78.25999999999999,66.11,235,1
2026-07-18T17:18:04.210Z,9940,1388,14380,1671,-3277,-111,5112,2056,19116,42,-929,-988,25.7,78.25999999999999,66.11,236,1
2026-07-18T17:18:04.571Z,4412,1528,12384,777,-2079,-2066,3520,164,12308,-714,-3424,-1593,25.68,78.224,66.13,237,1
2026-07-18T17:18:04.927Z,5496,-2140,18156,2027,-1804,-2104,0,0,0,0,0,0,25.66,78.188,66.16,240,1
2026-07-18T17:18:05.108Z,4416,-1660,18232,2692,2014,-2387,4192,1492,14924,30,1610,-1174,25.69,78.242,66.22,236,1
2026-07-18T17:18:05.292Z,5112,-400,20308,984,1588,-1655,8268,-64,19784,-273,1359,-1146,25.65,78.17,66.22,237,1
2026-07-18T17:18:05.660Z,1492,836,13120,1666,-8691,-1023,6928,844,13184,-925,-3816,458,25.64,78.152,66.22,236,1
2026-07-18T17:18:05.952Z,7268,3180,7844,-2932,944,-688,6968,2972,12448,-4883,2101,-153,25.65,78.17,66.22,236,1
2026-07-18T17:18:06.131Z,6924,864,12404,1958,-626,-426,4136,1048,13308,218,-698,-111,25.64,78.152,66.19,235,1
2026-07-18T17:18:06.249Z,-340,4584,24964,314,-3257,962,2532,5584,25152,-1142,-394,531,25.62,78.116,66.2,237,1
2026-07-18T17:18:06.553Z,6448,428,16068,-797,5327,1724,3840,2980,20328,-2713,432,2754,25.62,78.116,66.2,236,1
2026-07-18T17:18:06.729Z,1108,2716,21056,3231,-4779,1151,4872,880,15140,1715,-3159,-359,25.61,78.098,66.24,235,1
2026-07-18T17:18:07.091Z,5796,4684,13388,1251,4079,-12,,,,,,,25.61,78.098,66.28,235,1
2026-07-18T17:18:07.526Z,5364,1388,11976,2869,-4443,753,,,,,,,25.61,78.098,66.31,235,1
2026-07-18T17:18:07.571Z,8356,-1472,16576,2409,639,261,0,0,0,0,0,0,25.61,78.098,66.39,236,1
2026-07-18T17:18:07.630Z,,,,,,,-2160,3028,17536,-335,661,544,25.59,78.062,66.42,236,1
2026-07-18T17:18:07.872Z,0,0,0,0,0,0,2048,1888,19652,143,-2376,198,25.59,78.062,66.41,235,1
2026-07-18T17:18:08.114Z,,,,,,,11904,1764,2320,-1300,-28621,-482,25.57,78.026,66.44,236,1
2026-07-18T17:18:08.293Z,0,0,0,0,0,0,15416,1260,7640,936,3020,-262,25.61,78.098,66.44,236,1
2026-07-18T17:18:08.531Z,3528,5664,464,2388,-5241,1172,,,,,,,25.62,78.116,66.44,235,1
2026-07-18T17:18:08.724Z,2332,1620,25308,4713,-247,-806,,,,,,,25.59,78.062,66.48,236,1
2026-07-18T17:18:08.960Z,2316,4840,14980,3703,-5633,396,0,0,0,0,0,0,25.59,78.062,66.52,236,1
2026-07-18T17:18:09.493Z,-448,-1636,24672,4289,-466,-1893,600,1456,21476,1959,-2727,-344,25.59,78.062,66.52,235,1
2026-07-18T17:18:09.695Z,4840,-2908,17532,1826,23,-1602,2328,-2316,16412,-430,1130,-1247,25.59,78.062,66.5,234,1
2026-07-18T17:18:09.852Z,7720,-2716,15396,2675,-7263,-1189,4592,896,20064,207,-1966,-574,25.57,78.026,66.52,236,1
2026-07-18T17:18:09.972Z,5904,640,14336,2601,-699,-1532,5780,200,13064,122,1444,-771,25.56,78.008,66.54,236,1
2026-07-18T17:18:10.151Z,4364,-2296,17972,2072,29,-1434,5992,360,14376,255,-1,-1,25.57,78.026,66.53,236,1
2026-07-18T17:18:10.451Z,4080,-2900,18340,2575,-1665,-1846,5068,248,16988,476,1712,-1289,25.57,78.026,66.53,235,1
2026-07-18T17:18:10.695Z,6812,1756,15900,686,-10,73,6612,420,10972,-937,4059,-1469,25.54,77.972,66.51,235,1
2026-07-18T17:18:10.875Z,,,,,,,7500,3808,17628,-4424,2993,-1018,25.54,77.972,66.51,235,1
2026-07-18T17:18:11.046Z,0,0,0,0,0,0,2988,-2380,14008,1973,-9982,307,25.53,77.95400000000001,66.55,235,1
2026-07-18T17:18:11.295Z,520,-1540,17056,3128,-2120,-20,2876,1080,15548,930,-3052,-149,25.52,77.936,66.6,236,1
2026-07-18T17:18:11.712Z,4688,-984,16428,984,-5896,388,,,,,,,25.53,77.95400000000001,66.6,234,1
2026-07-18T17:18:12.011Z,-120,-464,26952,2842,-5612,-24,,,,,,,25.54,77.972,66.61,236,1
2026-07-18T17:18:12.314Z,3600,2248,17308,2377,-1701,203,0,0,0,0,0,0,25.54,77.972,66.61,234,1
2026-07-18T17:18:12.495Z,1112,2628,19772,536,-2044,695,4000,1420,16656,-1361,798,1350,25.52,77.936,66.64,235,1
2026-07-18T17:18:12.677Z,4556,680,17484,576,3889,-172,2956,1332,17176,-781,-1010,529,25.52,77.936,66.67,236,1
2026-07-18T17:18:12.852Z,7872,940,10408,3416,9004,-1118,,,,,,,25.53,77.95400000000001,66.71,235,1
2026-07-18T17:18:13.093Z,-280,5032,22148,811,-3446,1758,0,0,0,0,0,0,25.53,77.95400000000001,66.75,235,1
2026-07-18T17:18:13.872Z,,,,,,,6992,3124,18804,-1210,900,2302,25.52,77.936,66.77,235,1
2026-07-18T17:18:14.235Z,0,0,0,0,0,0,10600,1056,12768,713,268,-1465,25.52,77.936,66.84,236,1
2026-07-18T17:18:14.412Z,-3608,7480,18592,2984,-23342,3080,9896,-744,9420,-26,-4602,-488,25.53,77.95400000000001,66.84,235,1
2026-07-18T17:18:14.527Z,10796,-2616,21972,2266,-2261,-447,13416,-1420,17032,102,-503,-109,25.53,77.95400000000001,66.83,236,1
2026-07-18T17:18:14.778Z,6212,112,23728,2831,-2032,-893,6956,-128,18512,574,-1557,-800,25.54,77.972,66.83,236,1
2026-07-18T17:18:15.071Z,2472,1644,16752,1891,1554,-1364,,,,,,,25.54,77.972,66.84,236,1
2026-07-18T17:18:15.428Z,968,-2188,21544,3619,-2710,-1667,0,0,0,0,0,0,25.52,77.936,66.86,236,1
2026-07-18T17:18:15.793Z,3284,-384,25596,1730,1230,-1579,9496,-756,18068,-99,2729,-646,25.52,77.936,66.86,236,1
2026-07-18T17:18:15.915Z,1536,-2224,20120,3030,2621,-2340,4108,-40,17308,519,555,-1067,25.53,77.95400000000001,66.88,234,1
2026-07-18T17:18:16.032Z,6424,-552,23952,3026,1433,-1556,4840,72,23420,221,532,-1261,25.53,77.95400000000001,66.89,236,1
2026-07-18T17:18:16.221Z,5772,2360,14624,432,1800,-1056,0,0,0,0,0,0,25.5,77.9,66.92,236,1
2026-07-18T17:18:16.627Z,4532,480,16856,2103,-10,-696,5128,504,13460,117,974,-550,25.5,77.9,66.95,236,1
2026-07-18T17:18:16.823Z,-892,468,19040,1821,-197,-257,6276,-924,9620,-274,-1974,456,25.49,77.882,66.98,237,1
2026-07-18T17:18:17.115Z,1380,-2712,16776,2750,-811,-220,-832,164,22868,603,-108,-385,25.49,77.882,67,236,1
2026-07-18T17:18:17.592Z,4712,-4104,14472,3622,-2574,428,2616,-924,13760,1819,-2540,469,25.49,77.882,67.03,237,1
2026-07-18T17:18:17.832Z,6440,6596,11276,873,-1471,1232,7552,1660,7228,-468,2947,254,25.52,77.936,67.03,236,1
2026-07-18T17:18:17.952Z,5796,5953,-1,-1,-1,-1,5564,2112,17052,-177,1621,675,25.5,77.9,67.03,236,1
2026-07-18T17:18:18.394Z,-2528,-184,17408,1977,2027,-415,4128,-648,13216,332,2984,-844,25.5,77.9,67.04,235,1
2026-07-18T17:18:18.916Z,0,0,0,0,0,0,7800,-2824,16028,1093,-2478,-16,25.49,77.882,67.13,236,1
2026-07-18T17:18:19.345Z,14628,624,4888,2902,-8137,1677,10588,924,7548,1642,-10855,1763,25.49,77.882,67.16,236,1
2026-07-18T17:18:19.467Z,10076,-2496,15452,3981,3047,-372,,,,,,,25.49,77.882,67.17,235,1
2026-07-18T17:18:19.582Z,8192,3688,13116,4743,16784,25,0,0,0,0,0,0,25.52,77.936,67.18,234,1
2026-07-18T17:18:19.816Z,-1216,320,32767,5565,2842,-1648,8316,-2316,24488,3527,3317,-724,25.5,77.9,67.18,235,1
2026-07-18T17:18:19.954Z,9076,1640,13072,-1440,4343,-551,3228,-124,19864,-3265,2128,-872,25.49,77.882,67.18,235,1
2026-07-18T17:18:20.052Z,6216,3508,22944,2277,5093,-1805,5056,1460,22904,-225,-1006,-299,25.49,77.882,67.22,236,1
2026-07-18T17:18:20.184Z,,,,,,,6564,1520,16484,-1918,3105,-407,25.49,77.882,67.22,237,1
2026-07-18T17:18:20.464Z,,,,,,,3124,856,14128,978,1482,-1524,25.49,77.882,67.18,237,1
2026-07-18T17:18:20.622Z,0,0,0,0,0,0,5408,-792,14264,544,-3980,-1745,25.5,77.9,67.17,235,1
2026-07-18T17:18:20.957Z,5108,3828,7888,321,2279,-2007,5932,2460,8928,-1412,77,-892,25.5,77.9,67.14,235,1
2026-07-18T17:18:21.071Z,2744,-1432,13008,-587,-599,-1021,744,1932,13896,-3389,-1575,983,25.48,77.864,67.03,236,1
2026-07-18T17:18:21.371Z,5484,232,18320,817,-196,-1896,6040,1424,19812,-1445,1698,-916,25.46,77.828,66.98,236,1
2026-07-18T17:18:21.494Z,9000,3616,10848,488,4993,-1839,3584,1964,16892,-355,2342,-1371,25.45,77.81,66.92,236,1
2026-07-18T17:18:21.615Z,1300,-432,16628,1705,-4968,-343,3092,-248,13384,-503,235,-911,25.42,77.756,66.77,235,1
2026-07-18T17:18:21.733Z,,,,,,,-7552,-996,25712,4437,-5980,1216,25.41,77.738,66.71,234,1
2026-07-18T17:18:21.851Z,0,0,0,0,0,0,4292,712,15492,107,142,26,25.42,77.756,66.69,235,1
2026-07-18T17:18:21.971Z,4900,-2260,19316,845,1552,-337,3420,-684,19864,-121,1263,-886,25.39,77.702,66.66,234,1
2026-07-18T17:18:22.114Z,-8,-824,25396,3244,-4939,1165,8844,-128,13152,959,2305,-432,25.41,77.738,66.66,235,1
2026-07-18T17:18:22.329Z,-1692,1248,13976,2884,3514,-248,-1944,736,13300,609,3399,417,25.41,77.738,66.61,235,1
2026-07-18T17:18:22.573Z,-1860,-3200,22464,2639,261,664,2696,232,13432,143,2548,-44,25.41,77.738,66.58,235,1
2026-07-18T17:18:22.691Z,5948,4340,15992,1685,2251,307,6536,508,15164,550,4083,-613,25.42,77.756,66.55,234,1
2026-07-18T17:18:23.069Z,-1884,1260,17820,41,-4045,861,3760,-248,12696,-1097,-2536,-10,25.41,77.738,66.53,235,1
2026-07-18T17:18:23.388Z,2936,-1372,19320,4367,-3701,612,4452,2072,15560,2115,-3657,420,25.42,77.756,66.51,235,1
2026-07-18T17:18:23.592Z,,,,,,,,,,,,,25.42,77.756,66.48,234,1
2026-07-18T17:18:23.765Z,0,0,0,0,0,0,,,,,,,25.42,77.756,66.47,234,1
2026-07-18T17:18:24.012Z,2264,964,13160,1306,4067,-1500,0,0,0,0,0,0,25.41,77.738,66.47,235,1
2026-07-18T17:18:24.412Z,3976,-2356,17104,5033,-6008,677,3736,440,18116,2283,-3191,2271,25.42,77.756,66.47,235,1
2026-07-18T17:18:24.578Z,14920,1684,6544,2973,4732,2843,12696,12,7524,638,4736,3579,25.41,77.738,66.47,234,1
2026-07-18T17:18:24.688Z,3524,436,17956,1786,365,-987,3628,552,16804,-121,-519,-460,25.42,77.756,66.47,234,1
2026-07-18T17:18:24.858Z,3772,580,17796,1880,-190,-626,4492,680,15816,-69,-71,-322,25.39,77.702,66.44,233,1
2026-07-18T17:18:25.291Z,-3448,3320,22532,3745,-1027,-311,-6992,4500,27732,1371,-6515,1811,25.41,77.738,66.44,232,1
2026-07-18T17:18:25.513Z,5808,2080,22576,-1554,5536,866,7604,1936,17008,-2729,4887,2419,25.42,77.756,66.44,234,1
2026-07-18T17:18:25.993Z,5948,2204,9872,4471,3772,-362,-944,2064,16748,1909,747,1283,25.41,77.738,66.42,234,1
2026-07-18T17:18:26.352Z,,,,,,,3380,764,18148,1242,2144,9,25.43,77.774,66.42,234,1
2026-07-18T17:18:26.531Z,0,0,0,0,0,0,5432,1236,10880,-120,-2140,1670,25.43,77.774,66.42,234,1
2026-07-18T17:18:26.849Z,9304,-1736,14764,1706,126,953,9940,-4016,10256,301,3645,437,25.43,77.774,66.41,234,1
2026-07-18T17:18:27.030Z,3512,-152,17252,998,439,645,5592,-112,14756,-857,1483,938,25.42,77.756,66.41,234,1
2026-07-18T17:18:27.208Z,7688,2056,9792,-448,-3586,115,11840,2988,5792,-3132,5425,2156,25.41,77.738,66.41,234,1
2026-07-18T17:18:27.314Z,5732,1792,13392,2812,108,-1425,7288,1428,15556,784,2273,-2366,25.42,77.756,66.41,234,1
2026-07-18T17:18:27.465Z,,,,,,,7468,1444,16580,2272,-2943,-303,25.39,77.702,66.43,236,1
2026-07-18T17:18:27.851Z,0,0,0,0,0,0,7628,1916,12400,-1100,627,-645,25.39,77.702,66.43,234,1
2026-07-18T17:18:28.091Z,-164,2220,19980,2576,-733,-418,448,-2560,17684,645,-658,-1313,25.38,77.684,66.44,234,1
2026-07-18T17:18:28.331Z,1972,-1048,19344,2908,-3298,-1294,3760,-336,16312,1209,-658,-673,25.41,77.738,66.45,235,1
2026-07-18T17:18:28.631Z,,,,,,,4344,280,13336,145,395,-984,25.38,77.684,66.49,238,1
2026-07-18T17:18:29.112Z,0,0,0,0,0,0,3812,0,13680,-585,2954,-590,25.37,77.666,66.55,235,1
2026-07-18T17:18:29.291Z,-1380,1424,23632,2953,-4901,-1457,3380,-2352,13728,1594,-4176,-558,25.37,77.666,66.53,235,1
2026-07-18T17:18:29.535Z,1416,4904,17972,2211,-2580,-887,6800,328,11408,-137,-108,-1287,25.37,77.666,66.55,235,1
2026-07-18T17:18:30.010Z,6432,-1508,15068,1332,-1656,-2577,4828,-1380,14224,-307,-3587,-1287,25.37,77.666,66.56,235,1
2026-07-18T17:18:30.131Z,1596,1108,14260,222,1032,-2067,4116,1220,12752,-1837,-165,-791,25.37,77.666,66.63,233,1
2026-07-18T17:18:30.428Z,9824,996,11512,4091,2318,-1771,,,,,,,25.34,77.612,66.63,235,1
2026-07-18T17:18:30.555Z,3800,1640,18720,286,8131,2174,0,0,0,0,0,0,25.31,77.55799999999999,66.67,232,1
2026-07-18T17:18:30.791Z,3400,2316,9208,2094,2038,961,,,,,,,25.31,77.55799999999999,66.73,234,1
2026-07-18T17:18:30.911Z,3408,-388,27876,3153,-3623,792,0,0,0,0,0,0,25.31,77.55799999999999,66.75,235,1
2026-07-18T17:18:31.090Z,0,0,0,0,0,0,6356,2040,9368,983,4046,-973,25.31,77.55799999999999,66.79,234,1
2026-07-18T17:18:31.575Z,2468,-132,11912,2023,1164,594,4848,240,11928,-31,2752,1097,25.31,77.55799999999999,66.79,235,1
2026-07-18T17:18:31.751Z,3940,3880,16236,1162,-822,629,4484,3504,18068,-158,900,-26,25.31,77.55799999999999,66.79,234,1
2026-07-18T17:18:31.874Z,7696,384,16732,3244,-5755,-625,13148,-48,12712,1381,-608,-607,25.33,77.594,66.79,235,1
2026-07-18T17:18:32.139Z,0,0,0,0,0,0,1644,-1576,15708,136,-1612,-525,25.33,77.594,66.8,234,1
2026-07-18T17:18:32.268Z,9396,-1448,14564,2506,-267,-270,,,,,,,25.3,77.54,66.84,234,1
2026-07-18T17:18:32.462Z,-1388,3804,32372,1290,-4941,549,0,0,0,0,0,0,25.31,77.55799999999999,66.88,234,1
2026-07-18T17:18:32.622Z,3484,948,17244,1909,-271,-439,4276,964,15560,-2,-265,-79,25.3,77.54,66.89,234,1
2026-07-18T17:18:32.715Z,,,,,,,7308,-1536,7760,-5236,6416,-13593,25.31,77.55799999999999,66.92,233,1
2026-07-18T17:18:32.831Z,0,0,0,0,0,0,4220,-2864,19244,-2496,4736,-16431,25.31,77.55799999999999,66.96,234,1
2026-07-18T17:18:32.964Z,4196,1404,15912,1978,212,10,3980,1408,15668,119,9,417,25.31,77.55799999999999,66.96,234,1
2026-07-18T17:18:33.191Z,3524,828,17564,1967,-87,-321,4280,880,15592,69,118,-51,25.31,77.55799999999999,66.97,233,1
2026-07-18T17:18:33.528Z,3440,768,17592,1966,-78,-307,4244,816,15692,43,83,-42,25.31,77.55799999999999,67.01,233,1
2026-07-18T17:18:34.013Z,6984,4612,15196,-570,133,-13794,6532,984,14540,-3413,1500,-14813,25.31,77.55799999999999,67.01,234,1
2026-07-18T17:18:34.501Z,4344,572,16124,-1100,426,-18734,-1224,1860,20676,-4586,-4418,-17811,25.31,77.55799999999999,67.01,233,1
2026-07-18T17:18:34.827Z,124,-10160,17528,1482,-2253,-13632,,,,,,,25.34,77.612,67.02,234,1
2026-07-18T17:18:35.051Z,5124,-8440,28512,2466,-10250,1313,0,0,0,0,0,0,25.33,77.594,67.01,234,1
2026-07-18T17:18:35.474Z,3596,1028,18308,2221,321,1,4176,1268,17200,173,-34,359,25.34,77.612,67,233,1
2026-07-18T17:18:35.651Z,3428,876,17604,2002,-60,-358,4260,936,15712,16,-1,-5,25.34,77.612,67,232,1
2026-07-18T17:18:36.251Z,3028,-20,19668,2299,-1788,-247,64,-1576,23552,982,-2914,-23,25.33,77.594,67.01,234,1
2026-07-18T17:18:36.451Z,1636,1944,14476,2400,-3681,13,1884,1284,15916,490,-3516,1039,25.33,77.594,67.01,233,1
2026-07-18T17:18:36.817Z,0,0,0,0,0,0,,,,,,,25.33,77.594,66.99,233,1
2026-07-18T17:18:36.971Z,512,328,20856,1807,1099,-332,0,0,0,0,0,0,25.31,77.55799999999999,67.01,233,1
2026-07-18T17:18:37.314Z,-3768,2356,12544,1152,-489,479,1360,2388,11628,-783,799,1361,25.33,77.594,66.99,235,1
2026-07-18T17:18:37.610Z,,,,,,,7240,660,16876,1550,5354,-61,25.31,77.55799999999999,66.96,235,1
2026-07-18T17:18:37.798Z,,,,,,,2908,268,15400,-486,393,-270,25.31,77.55799999999999,66.93,234,1
2026-07-18T17:18:38.093Z,0,0,0,0,0,0,1612,464,14044,825,2539,733,25.31,77.55799999999999,66.92,233,1
2026-07-18T17:18:38.307Z,3060,3032,18732,834,2467,-254,6576,556,15044,-354,-149,-179,25.31,77.55799999999999,66.89,233,1
2026-07-18T17:18:38.413Z,4552,2420,14124,3131,863,543,,,,,,,25.31,77.55799999999999,66.86,234,1
2026-07-18T17:18:38.614Z,4972,1416,23208,2898,4952,411,0,0,0,0,0,0,25.27,77.486,66.83,233,1
2026-07-18T17:18:38.836Z,4488,1384,8180,876,5016,17,3180,468,8968,-863,2650,21,25.24,77.432,66.86,234,1
2026-07-18T17:18:39.030Z,10268,-2716,8996,1475,-324,-719,9528,-2708,12656,521,1890,-1598,25.22,77.396,66.92,234,1
2026-07-18T17:18:39.254Z,3660,452,18512,1531,106,1324,,,,,,,25.22,77.396,67.1,232,1
2026-07-18T17:18:39.496Z,9764,192,17228,-1464,6384,1662,0,0,0,0,0,0,25.22,77.396,67.23,234,1
2026-07-18T17:18:39.728Z,,,,,,,5188,136,10520,988,1479,-783,25.22,77.396,67.3,234,1
2026-07-18T17:18:39.982Z,,,,,,,13632,400,8532,3313,-8993,2476,25.22,77.396,67.43,233,1
2026-07-18T17:18:40.430Z,0,0,0,0,0,0,8616,-76,17380,3102,-927,-1161,25.23,77.414,67.47,233,1
2026-07-18T17:18:40.571Z,3916,552,12712,1143,1257,-2048,2788,2652,14628,-955,-542,-1996,25.22,77.396,67.58,233,1
2026-07-18T17:18:40.930Z,892,616,13456,3257,-3958,-1661,0,0,0,0,0,0,25.23,77.414,67.58,234,1
2026-07-18T17:18:41.111Z,3568,-1264,32660,3439,-1077,-1201,2180,-3076,25004,1552,809,-2082,25.22,77.396,67.6,234,1
2026-07-18T17:18:41.290Z,,,,,,,1436,3048,19240,-194,349,-749,25.23,77.414,67.63,233,1
2026-07-18T17:18:41.651Z,0,0,0,0,0,0,4128,-1432,16120,1739,-2708,-410,25.23,77.414,67.64,234,1
2026-07-18T17:18:41.770Z,8436,184,6928,1291,1152,-972,4544,-180,9212,-484,1080,-2005,25.22,77.396,67.64,235,1
2026-07-18T17:18:41.905Z,4924,-680,23820,1135,-226,-1547,8356,1984,21120,-899,3934,-1960,25.23,77.414,67.67,236,1
2026-07-18T17:18:42.359Z,420,1020,18316,1776,838,-791,4644,3592,12376,318,225,-1013,25.23,77.414,67.7,233,1
2026-07-18T17:18:42.512Z,1140,-736,20040,265,1790,-1528,3892,956,13900,-1435,672,-511,25.22,77.396,67.69,233,1
2026-07-18T17:18:42.728Z,4436,-1900,18944,2161,874,-1591,5672,-1068,14312,-54,2838,-915,25.23,77.414,67.67,233,1
2026-07-18T17:18:42.853Z,4404,1796,16388,369,2585,-1527,124,2452,18896,-879,-1383,-1197,25.22,77.396,67.63,234,1
2026-07-18T17:18:43.176Z,2064,904,18000,-459,4341,-2656,5312,824,16856,-1815,1101,-1612,25.22,77.396,67.6,232,1
2026-07-18T17:18:43.270Z,1920,-1020,22648,2246,-1304,-1351,7924,-1188,16584,-94,948,-1064,25.22,77.396,67.58,233,1
2026-07-18T17:18:43.451Z,1936,1368,12500,963,6430,-2252,1556,576,11584,-321,-1,-1,25.2,77.36,67.56,234,1
2026-07-18T17:18:43.858Z,0,0,0,0,0,0,4876,-788,10888,-203,931,-696,25.2,77.36,67.53,236,1
2026-07-18T17:18:43.950Z,,,,,,,3624,424,17732,-348,-1943,-1951,25.2,77.36,67.49,232,1
2026-07-18T17:18:44.061Z,,,,,,,-276,2388,12124,-1393,-1481,-1610,25.2,77.36,67.46,233,1
2026-07-18T17:18:44.512Z,0,0,0,0,0,0,2568,1048,12352,-794,-426,-738,25.19,77.342,67.42,233,1
2026-07-18T17:18:44.605Z,3796,808,17820,1716,-844,279,4104,772,16544,28,-606,563,25.19,77.342,67.43,234,1
2026-07-18T17:18:44.712Z,3284,876,17900,2078,21,-322,4112,912,15968,106,145,-44,25.19,77.342,67.46,234,1
2026-07-18T17:18:44.963Z,3352,856,17812,1991,-83,-321,4236,860,15860,56,8,-34,25.2,77.36,67.47,232,1
2026-07-18T17:18:45.074Z,6980,-604,14360,1064,-2071,-358,4108,1872,19220,-1095,-1768,744,25.2,77.36,67.47,233,1
2026-07-18T17:18:45.703Z,1940,-2900,18172,5148,-1120,62,6352,-1696,10856,2857,1134,-1117,25.2,77.36,67.49,233,1
2026-07-18T17:18:45.879Z,6188,980,13336,169,-4620,1489,5220,-1404,10460,-1439,-558,749,25.22,77.396,67.47,233,1
2026-07-18T17:18:46.395Z,596,1352,15920,2616,-1914,604,1680,1224,12524,275,1366,621,25.22,77.396,67.46,233,1
2026-07-18T17:18:46.827Z,632,-616,28132,605,3398,677,4116,468,20880,-1097,540,1080,25.2,77.36,67.44,234,1
2026-07-18T17:18:46.995Z,7464,3012,10280,4417,658,835,5824,2456,11263,-1,-1,-1,25.22,77.396,67.46,234,1
2026-07-18T17:18:47.230Z,-1740,-1976,25568,1854,-1315,390,,,,,,,25.22,77.396,67.46,232,1
2026-07-18T17:18:47.412Z,9868,3012,14824,-1738,4294,800,0,0,0,0,0,0,25.23,77.414,67.46,233,1
2026-07-18T17:18:47.654Z,2788,3524,17956,3040,-3146,1179,,,,,,,25.22,77.396,67.46,234,1
2026-07-18T17:18:47.966Z,648,-2052,23820,221,-2246,633,0,0,0,0,0,0,25.22,77.396,67.46,234,1
2026-07-18T17:18:48.191Z,6100,-1512,14500,2082,2919,-1067,3652,1432,16540,-186,107,-941,25.22,77.396,67.5,235,1
2026-07-18T17:18:48.310Z,5352,4308,12340,2964,2124,-740,1732,-96,14324,1452,-46,151,25.2,77.36,67.5,233,1
2026-07-18T17:18:48.729Z,-1828,-5124,19996,1593,-5945,-265,3348,-276,14080,-660,-4269,1795,25.19,77.342,67.47,233,1
2026-07-18T17:18:48.910Z,,,,,,,,,,,,,25.2,77.36,67.46,235,1
2026-07-18T17:18:49.031Z,0,0,0,0,0,0,0,0,0,0,0,0,25.19,77.342,67.42,233,1
2026-07-18T17:18:49.332Z,0,0,0,0,0,0,5812,1812,17136,-2124,1688,2095,25.19,77.342,67.4,234,1
2026-07-18T17:18:49.691Z,-4140,-1188,30564,3103,-8765,1244,,,,,,,25.2,77.36,67.38,236,1
2026-07-18T17:18:49.873Z,18856,1096,14116,849,3088,957,0,0,0,0,0,0,25.19,77.342,67.39,233,1
2026-07-18T17:18:50.230Z,,,,,,,3080,1152,11164,-3238,-548,499,25.2,77.36,67.39,233,1
2026-07-18T17:18:50.591Z,0,0,0,0,0,0,3108,-620,14084,822,-1745,-920,25.17,77.30600000000001,67.42,234,1
2026-07-18T17:18:51.094Z,2848,160,19428,3877,-2455,-1944,5872,796,13548,1318,-1217,-1396,25.17,77.30600000000001,67.43,234,1
2026-07-18T17:18:51.367Z,2680,-4,9392,1909,573,-3096,3460,964,9868,-393,-936,-1128,25.15,77.27,67.47,233,1
2026-07-18T17:18:51.495Z,2876,632,28036,-560,85,-296,7500,-1948,17272,-2566,1878,-751,25.13,77.234,67.48,232,1
2026-07-18T17:18:51.793Z,2044,5144,12476,466,3987,-1016,3708,736,12152,-844,6920,-1494,25.16,77.288,67.5,233,1
2026-07-18T17:18:51.969Z,6772,1300,10468,2536,-63,-689,3392,164,12196,605,-3696,-1221,25.15,77.27,67.52,233,1
2026-07-18T17:18:52.092Z,6052,2024,27536,705,6105,-1968,4116,-204,23996,-995,3809,-1340,25.15,77.27,67.55,233,1
2026-07-18T17:18:52.212Z,6400,-428,16140,2450,1798,-1812,5548,-552,16632,520,1535,-1599,25.13,77.234,67.58,234,1
2026-07-18T17:18:52.511Z,3884,544,17668,2100,10,127,2136,1616,15704,304,-1412,341,25.13,77.234,67.63,234,1
2026-07-18T17:18:52.632Z,3556,636,16660,1629,340,-833,4380,752,14992,-195,-212,-396,25.13,77.234,67.64,233,1
2026-07-18T17:18:52.751Z,3620,560,17636,2004,-87,-308,4152,716,15504,76,132,-80,25.13,77.234,67.64,234,1
2026-07-18T17:18:52.929Z,3332,796,17552,2043,105,-346,4052,928,15644,71,67,-19,25.13,77.234,67.67,233,1
2026-07-18T17:18:53.112Z,3276,824,17388,1991,73,-385,4124,912,15684,67,95,-35,25.15,77.27,67.65,233,1
2026-07-18T17:18:53.355Z,3484,724,17716,2025,-20,-318,4156,812,15624,102,124,-37,25.16,77.288,67.65,233,1
2026-07-18T17:18:53.471Z,7336,-3204,460,-374,5733,-10312,1464,-2280,5644,-3627,2279,-9950,25.15,77.27,67.64,234,1
2026-07-18T17:18:53.650Z,9840,-2428,9712,-2718,13540,-12898,3120,-7332,10932,-4679,4174,-14290,25.15,77.27,67.67,233,1
2026-07-18T17:18:53.770Z,4004,16,17988,2079,234,-352,4672,96,16048,115,268,-23,25.16,77.288,67.67,233,1
2026-07-18T17:18:54.012Z,2952,-2800,22652,-958,16034,-17772,-1888,-5932,24376,-3125,7485,-15962,25.13,77.234,67.7,232,1
2026-07-18T17:18:54.174Z,10132,1256,8504,-1473,7827,-12534,7664,-1896,8312,-4003,6641,-13400,25.13,77.234,67.7,232,1
2026-07-18T17:18:54.370Z,16920,-1212,-184,2527,13138,-18618,-2764,2612,23460,-1536,8586,-17571,25.13,77.234,67.71,233,1
2026-07-18T17:18:54.486Z,,,,,,,9216,5604,24560,-2876,10076,4493,25.13,77.234,67.74,233,1
2026-07-18T17:18:54.612Z,0,0,0,0,0,0,2804,-88,12736,161,-948,58,25.15,77.27,67.75,233,1
2026-07-18T17:18:54.729Z,1372,2256,17020,-179,-2430,-1336,6196,-472,14900,-1793,-1,-1,25.13,77.234,67.77,233,1
2026-07-18T17:18:54.910Z,7792,1924,17104,-1218,-6,-1427,9268,812,21696,-3218,787,-688,25.13,77.234,67.77,233,1
2026-07-18T17:18:55.090Z,16,1440,21536,-5725,5302,-27259,4028,-7528,17924,-8332,3450,-26470,25.13,77.234,67.75,232,1
2026-07-18T17:18:55.213Z,340,-12216,32767,-471,7761,-15553,8036,-3380,24856,-5210,6278,-14225,25.13,77.234,67.72,233,1
2026-07-18T17:18:55.390Z,1824,-844,10644,2450,-3764,2522,960,-744,10292,623,505,2097,25.11,77.19800000000001,67.68,233,1
2026-07-18T17:18:55.691Z,4912,1148,19728,1929,1053,-43,5524,892,18356,25,1306,216,25.13,77.234,67.65,233,1
2026-07-18T17:18:55.815Z,,,,,,,2788,696,11620,-2871,970,-12122,25.13,77.234,67.65,234,1
2026-07-18T17:18:56.065Z,,,,,,,3220,1220,11392,-1543,-1232,-10578,25.11,77.19800000000001,67.62,233,1
2026-07-18T17:18:56.358Z,0,0,0,0,0,0,1128,1140,19260,-1253,1425,-16370,25.12,77.21600000000001,67.61,232,1
2026-07-18T17:18:56.648Z,5876,18336,6036,-3185,30833,5052,-19968,15296,32767,-4795,1179,7660,25.11,77.19800000000001,67.59,232,1
2026-07-18T17:18:56.896Z,0,0,0,0,0,0,5160,1728,19488,557,-954,-742,25.12,77.21600000000001,67.6,232,1
2026-07-18T17:18:57.346Z,1424,-20,18068,953,697,-455,3488,-1016,14176,-409,152,-858,25.12,77.21600000000001,67.6,232,1
2026-07-18T17:18:57.671Z,8304,4472,10400,835,1848,-2011,5920,2376,13588,-688,-2119,-1346,25.12,77.21600000000001,67.58,232,1
2026-07-18T17:18:58.001Z,2076,832,12096,1605,9266,-2132,4240,3096,11592,-69,7201,-1655,25.11,77.19800000000001,67.58,232,1
2026-07-18T17:18:58.391Z,3140,2928,18672,1220,-1343,-967,7060,268,12188,-349,102,-1862,25.12,77.21600000000001,67.58,233,1
2026-07-18T17:18:58.631Z,-3172,7988,14092,578,541,1278,-8120,6428,24644,-100,-1935,2002,25.12,77.21600000000001,67.57,232,1
2026-07-18T17:18:59.511Z,2396,572,14160,1360,610,-297,4024,868,10960,-507,466,100,25.12,77.21600000000001,67.57,233,1
2026-07-18T17:18:59.595Z,4556,864,19896,2209,-406,462,5704,1096,17096,308,-139,755,25.12,77.21600000000001,67.57,232,1
2026-07-18T17:18:59.827Z,3348,968,18044,1959,0,-505,4240,984,16324,49,54,-179,25.12,77.21600000000001,67.57,232,1
2026-07-18T17:19:00.053Z,-4036,-1080,24116,3229,-13716,-1168,10832,-1776,8896,360,-2588,-405,25.12,77.21600000000001,67.57,232,1
2026-07-18T17:19:00.430Z,-240,-2004,20284,494,-3779,-936,3848,-328,16868,-1165,-2239,-358,25.11,77.19800000000001,67.56,233,1
2026-07-18T17:19:00.557Z,9212,820,6888,1695,-2635,-1311,,,,,,,25.13,77.234,67.57,233,1
2026-07-18T17:19:00.744Z,3036,664,20316,1582,581,-1272,0,0,0,0,0,0,25.12,77.21600000000001,67.57,231,1
2026-07-18T17:19:01.095Z,-14392,2484,32767,1648,-8261,1367,,,,,,,25.12,77.21600000000001,67.6,234,1
2026-07-18T17:19:01.512Z,-72,424,17656,1663,-2617,860,0,0,0,0,0,0,25.12,77.21600000000001,67.6,232,1
2026-07-18T17:19:01.718Z,,,,,,,1828,1288,12988,832,2364,546,25.12,77.21600000000001,67.6,232,1
2026-07-18T17:19:01.814Z,0,0,0,0,0,0,4688,-684,18368,-21,-1743,36,25.11,77.19800000000001,67.62,233,1
2026-07-18T17:19:01.968Z,2568,-144,19560,1822,3168,-179,7484,704,13444,-235,1107,1616,25.09,77.162,67.64,232,1
2026-07-18T17:19:02.051Z,-4480,-248,23752,3142,-6732,210,4772,-880,13440,866,-2129,587,25.11,77.19800000000001,67.71,233,1
2026-07-18T17:19:02.182Z,7676,-4464,12896,1988,11470,-797,3148,1580,16288,-430,3865,1361,25.09,77.162,67.8,233,1
2026-07-18T17:19:02.387Z,-3692,-1732,26544,2044,-2186,131,1000,-1076,19264,1141,-5532,1554,25.08,77.14399999999999,67.88,233,1
2026-07-18T17:19:02.950Z,-6236,7804,18100,646,-4615,655,-968,2228,12652,-970,-4040,1841,25.08,77.14399999999999,67.91,232,1
2026-07-18T17:19:03.070Z,2892,-1468,16952,4573,-2939,-736,2248,1512,17904,1773,-1835,874,25.08,77.14399999999999,67.92,233,1
2026-07-18T17:19:03.249Z,532,-516,15880,2936,-1730,-369,5292,352,9484,266,1615,919,25.08,77.14399999999999,67.91,232,1
2026-07-18T17:19:03.550Z,11096,-8592,17716,3444,-27465,-1002,5092,200,12760,3099,-28145,1970,25.06,77.108,67.91,232,1
2026-07-18T17:19:03.969Z,7132,-2476,6308,4497,32767,1081,7968,-248,5896,1150,28775,407,25.08,77.14399999999999,67.91,234,1
2026-07-18T17:19:04.278Z,-19468,-2180,32767,3606,-12603,8176,8264,-172,23976,2696,8984,5664,25.06,77.108,67.92,233,1
2026-07-18T17:19:04.570Z,1964,-340,24112,1356,-1908,-1469,5048,-196,16948,-854,10,-1947,25.08,77.14399999999999,67.93,232,1
2026-07-18T17:19:05.016Z,3644,1908,23352,-2287,-655,-1545,6796,28,19156,-4110,279,-1018,25.06,77.108,67.99,232,1
2026-07-18T17:19:05.169Z,-92,-332,19900,1189,2154,-1946,3084,1032,16252,-734,188,-1250,25.06,77.108,67.99,232,1
2026-07-18T17:19:05.293Z,9380,-3256,15584,1561,1272,-2868,7292,412,16092,-318,1075,-1831,25.06,77.108,67.99,231,1
2026-07-18T17:19:05.496Z,5928,472,4324,1299,5659,-2210,2036,1332,6964,-591,-281,-910,25.04,77.072,67.97,231,1
2026-07-18T17:19:05.771Z,0,0,0,0,0,0,,,,,,,25.01,77.018,67.97,231,1
2026-07-18T17:19:05.949Z,4980,-2668,15440,2128,-1835,-917,0,0,0,0,0,0,25.02,77.036,67.96,231,1
2026-07-18T17:19:06.228Z,7084,-180,13812,13,4494,-1793,5596,44,15088,-1328,3128,-1449,25.04,77.072,67.96,232,1
2026-07-18T17:19:06.549Z,8340,-656,13284,-3468,7259,-681,,,,,,,25.04,77.072,68,237,1
2026-07-18T17:19:06.793Z,,,,,,,0,0,0,0,0,0,25.05,77.09,68.01,232,1
2026-07-18T17:19:07.210Z,0,0,0,0,0,0,3412,3320,21008,183,2014,-1845,25.04,77.072,68.03,232,1
2026-07-18T17:19:07.714Z,-340,-600,21860,3202,-2951,-812,5564,-320,15512,1514,-1300,-1218,25.04,77.072,68.04,230,1
2026-07-18T17:19:07.991Z,-15980,-2168,22404,3694,6391,4839,-9656,1444,11452,1032,4301,5451,25.01,77.018,68.19,232,1
2026-07-18T17:19:08.350Z,5060,7208,21688,1243,11348,3624,4408,4768,20932,127,-1,-1,25.04,77.072,68.2,231,1
2026-07-18T17:19:08.650Z,,,,,,,3108,440,14540,604,4324,-823,25.02,77.036,68.23,232,1
2026-07-18T17:19:09.410Z,0,0,0,0,0,0,1700,4856,17240,-1437,-2790,2482,25.02,77.036,68.25,231,1
2026-07-18T17:19:09.970Z,5560,-156,14612,-540,-856,-14,5336,-212,14716,-1755,-2624,1624,25.01,77.018,68.29,231,1
2026-07-18T17:19:11.242Z,7272,988,17792,3148,-2702,835,6688,-560,15832,1171,-45,145,25,77,68.29,231,1
2026-07-18T17:19:11.349Z,4284,668,18288,2319,469,-486,4152,852,17160,212,52,-150,25,77,68.21,231,1
2026-07-18T17:19:12.551Z,8764,1768,9424,1658,3879,-1778,-132,1164,17584,-1,-1,-1,24.98,76.964,68.14,233,1
2026-07-18T17:19:12.763Z,-1468,-4080,25940,1233,-62,-1614,5936,-936,14992,-266,1896,-2033,25,77,68.11,233,1
2026-07-18T17:19:13.053Z,5500,-1520,17280,1361,1309,-2485,5240,-468,16180,-47,1522,-1457,25.02,77.036,68.08,232,1
2026-07-18T17:19:13.235Z,3788,-292,18480,2080,-9,-1448,5836,964,14428,-313,1832,-1111,25.01,77.018,68.04,232,1
2026-07-18T17:19:13.750Z,976,3464,17792,3450,-3802,-965,1584,2648,18396,696,-34,-462,25,77,68,232,1
2026-07-18T17:19:13.869Z,6104,2696,12292,1361,-2635,-1132,,,,,,,25,77,67.99,232,1
2026-07-18T17:19:14.170Z,2996,1120,14396,1209,2774,-2299,0,0,0,0,0,0,25,77,68.01,231,1
2026-07-18T17:19:14.526Z,4972,3496,14136,1279,2664,-1894,5132,3880,15504,-730,-20,-1108,25,77,68.04,233,1
2026-07-18T17:19:14.950Z,1584,1348,18384,10287,-6317,195,5272,-5112,13180,8009,-11710,111,25,77,68.08,233,1
2026-07-18T17:19:15.134Z,6760,2592,17640,1267,-3967,459,8480,3180,19648,-573,-5643,2356,25,77,68.14,232,1
2026-07-18T17:19:15.594Z,5812,2968,14216,735,-1074,186,1072,1316,19500,-820,-1646,89,25,77,68.2,233,1
2026-07-18T17:19:15.854Z,2772,2500,15032,1100,4599,-547,-1260,4524,16876,-790,-1007,1198,24.98,76.964,68.24,232,1
2026-07-18T17:19:16.094Z,11624,544,12776,2589,9462,-461,6668,788,19584,464,3309,-610,24.98,76.964,68.37,231,1
2026-07-18T17:19:16.567Z,5308,-1360,17460,3546,-3183,-1625,6560,1804,13828,1404,-1676,-593,24.98,76.964,68.39,232,1
2026-07-18T17:19:16.871Z,5224,1748,12368,1003,2640,-611,4052,992,13732,-716,-552,-1191,24.97,76.946,68.41,233,1
2026-07-18T17:19:17.233Z,,,,,,,4596,940,15580,84,94,-10,24.97,76.946,68.55,232,1
2026-07-18T17:19:17.561Z,0,0,0,0,0,0,0,0,0,0,0,0,24.98,76.964,68.61,231,1
2026-07-18T17:19:17.891Z,-968,1672,19592,1299,-1244,473,5284,488,13384,-508,-1087,347,24.98,76.964,68.61,234,1
2026-07-18T17:19:18.233Z,,,,,,,12364,-736,6636,2140,-7468,2610,24.96,76.928,68.57,237,1
2026-07-18T17:19:18.430Z,0,0,0,0,0,0,-2360,4956,5556,1456,-3625,291,24.97,76.946,68.49,230,1
2026-07-18T17:19:18.549Z,2292,2912,13544,1386,-920,-1780,5492,2348,9436,-504,434,-2021,24.96,76.928,68.41,231,1
2026-07-18T17:19:18.909Z,1612,1748,18052,1950,-3608,-2321,7348,-1716,14612,832,-1989,-2928,24.97,76.946,68.37,233,1
2026-07-18T17:19:19.090Z,-9908,-1272,16228,4939,-5522,1232,-5648,304,16000,3542,-9083,2766,24.96,76.928,68.27,233,1
2026-07-18T17:19:19.230Z,3952,744,16020,1820,624,-179,4020,864,14728,-29,223,168,24.96,76.928,68.25,233,1
2026-07-18T17:19:19.528Z,4456,4148,10808,1388,1058,1172,3116,92,10724,-100,-2155,1622,24.96,76.928,68.21,233,1
2026-07-18T17:19:19.690Z,4920,-424,21324,1609,-1517,-465,6412,328,18692,-6,344,194,24.96,76.928,68.19,230,1
2026-07-18T17:19:20.195Z,10740,-1700,12868,3963,-6808,56,15092,256,3324,2051,-6143,54,24.94,76.892,68.18,232,1
2026-07-18T17:19:20.949Z,-6040,7596,13920,1926,-961,1434,1388,3444,6512,471,-777,1235,24.94,76.892,68.18,232,1
2026-07-18T17:19:21.291Z,664,-980,24752,6064,-8378,-247,4588,-1136,16936,4105,-3277,-1248,24.94,76.892,68.16,233,1
2026-07-18T17:19:21.580Z,2776,-2416,19208,2191,2497,-1029,2376,-48,21844,216,-173,137,24.93,76.874,68.16,233,1
2026-07-18T17:19:21.816Z,3380,868,17424,2005,-98,-330,4176,1036,15452,107,80,-17,24.94,76.892,68.18,230,1
2026-07-18T17:19:22.149Z,7480,-6200,16300,-1170,8744,-15937,4236,-1288,16232,-4390,5891,-15402,24.94,76.892,68.21,232,1
2026-07-18T17:19:22.306Z,3192,700,17488,2072,-34,-220,4032,848,15392,130,190,48,24.93,76.874,68.24,233,1
2026-07-18T17:19:22.569Z,3248,1732,20484,1742,1207,135,7644,2004,15328,-520,-52,861,24.93,76.874,68.24,233,1
2026-07-18T17:19:22.809Z,2904,996,14904,2007,412,-681,2796,1108,13564,-4,1142,-532,24.93,76.874,68.25,234,1
2026-07-18T17:19:22.989Z,5828,2276,12344,1601,-4238,-495,8556,-832,12072,336,-1161,-2072,24.91,76.838,68.28,233,1
2026-07-18T17:19:23.229Z,11032,-1980,13596,642,5479,-1743,,,,,,,24.93,76.874,68.28,233,1
2026-07-18T17:19:23.351Z,-21360,6816,32767,3395,-12805,6162,0,0,0,0,0,0,24.93,76.874,68.31,233,1
2026-07-18T17:19:23.649Z,3368,840,19124,1953,-236,-585,4592,888,16600,48,235,-364,24.93,76.874,68.31,234,1