Timestamp,MPU1_Accel_X,MPU1_Accel_Y,MPU1_Accel_Z,MPU1_Gyro_X,MPU1_Gyro_Y,MPU1_Gyro_Z,MPU2_Accel_X,MPU2_Accel_Y,MPU2_Accel_Z,MPU2_Gyro_X,MPU2_Gyro_Y,MPU2_Gyro_Z,Temp_C,Temp_F,Humidity,Gas_Analog,Gas_Digital
2026-07-18T17:36:54.176Z,3892,948,17536,2008,-36,-343,4732,964,15432,57,73,-38,26.3,79.34,65.14,228,1
2026-07-18T17:36:54.486Z,3856,848,17512,1986,0,-338,4692,964,15456,23,96,-80,26.3,79.34,65.14,228,1
2026-07-18T17:36:54.658Z,3852,884,17580,1955,-93,-341,4760,984,15544,83,63,7,26.3,79.34,65.14,227,1
2026-07-18T17:36:54.898Z,3960,888,17544,1978,-28,-367,4768,1056,15460,92,114,-28,26.3,79.34,65.14,227,1
2026-07-18T17:36:55.019Z,3928,852,17568,1960,-31,-361,4736,948,15580,85,94,-52,26.3,79.34,65.14,228,1
2026-07-18T17:36:55.377Z,3872,836,17592,1986,-41,-303,4744,996,15508,58,101,-16,26.3,79.34,65.14,228,1
2026-07-18T17:36:55.621Z,3852,968,17460,1966,-38,-318,4712,1020,15464,51,58,-26,26.29,79.322,65.12,227,1
2026-07-18T17:36:55.821Z,3876,932,17536,1994,-15,-342,4784,960,15540,95,68,-47,26.32,79.376,65.13,227,1
2026-07-18T17:36:55.988Z,3856,888,17612,1964,-11,-334,4724,1012,15508,83,88,-22,26.3,79.34,65.11,227,1
2026-07-18T17:36:56.097Z,3852,864,17428,1985,-46,-336,4760,1012,15556,56,59,-57,26.29,79.322,65.11,228,1
2026-07-18T17:36:56.221Z,3912,844,17596,1971,-24,-332,4712,984,15496,81,79,-16,26.3,79.34,65.11,228,1
2026-07-18T17:36:56.638Z,3876,916,17508,2006,-12,-322,4732,984,15424,67,95,-45,26.3,79.34,65.11,228,1
2026-07-18T17:36:57.059Z,3884,904,17580,1976,-19,-324,4744,912,15448,80,76,-22,26.3,79.34,65.11,227,1
2026-07-18T17:36:57.598Z,3832,920,17476,1994,-34,-339,4804,944,15448,16,118,-73,26.3,79.34,65.12,227,1
2026-07-18T17:36:57.899Z,3916,844,17572,1997,-37,-355,4696,960,15428,45,90,-12,26.33,79.39399999999999,65.12,227,1
2026-07-18T17:36:58.077Z,3892,912,17560,1967,4,-307,4760,928,15512,38,66,-36,26.3,79.34,65.11,229,1
2026-07-18T17:36:58.199Z,3876,884,17548,1966,-27,-326,4800,932,15404,44,100,-17,26.32,79.376,65.1,227,1
2026-07-18T17:36:58.376Z,3856,916,17528,1986,-31,-327,4744,1000,15524,77,105,-33,26.3,79.34,65.11,227,1
2026-07-18T17:36:59.097Z,3924,888,17432,1989,-1,-362,4748,984,15504,78,89,-64,26.3,79.34,65.12,230,1
2026-07-18T17:36:59.338Z,15820,2228,3904,3282,8776,-719,9476,-172,9560,1306,-2384,-1161,26.3,79.34,65.11,226,1
2026-07-18T17:36:59.638Z,,,,,,,4532,1236,16112,178,156,-907,26.3,79.34,65.11,226,1
2026-07-18T17:36:59.758Z,,,,,,,8196,2088,-2840,-7467,16290,-1533,26.3,79.34,65.11,225,1
2026-07-18T17:37:00.004Z,0,0,0,0,0,0,5124,-1684,13096,652,-5127,2,26.3,79.34,65.11,226,1
2026-07-18T17:37:00.298Z,0,0,0,0,0,0,8596,-284,12964,-2243,-1330,-1836,26.25,79.25,65.14,231,1
2026-07-18T17:37:00.477Z,8248,6776,1648,3248,-4745,-1371,4012,2872,12568,1381,-7647,-1313,26.25,79.25,65.17,270,1
2026-07-18T17:37:00.657Z,13280,-1676,29600,1962,13002,-2117,16172,-2732,18060,563,4205,-1480,26.25,79.25,65.18,227,1
2026-07-18T17:37:00.864Z,-2308,-1432,10220,2646,405,-3346,1736,-480,5088,220,236,-2305,26.25,79.25,65.19,227,1
2026-07-18T17:37:01.199Z,-6900,-3824,28724,-1071,-2516,-1847,-2776,-312,20588,-2497,-4590,-1865,26.25,79.25,65.19,231,1
2026-07-18T17:37:01.454Z,-7884,7848,19496,-1110,-11132,-401,2976,-876,7956,-873,405,-3172,26.27,79.286,65.19,227,1
2026-07-18T17:37:01.688Z,4076,516,18660,2111,-40,-389,5188,872,15724,139,287,-127,26.21,79.178,65.26,223,1
2026-07-18T17:37:01.921Z,-144,8076,18628,1157,-7257,20724,,,,,,,26.2,79.16,65.31,225,1
2026-07-18T17:37:02.038Z,3156,1460,15140,2070,-498,-164,0,0,0,0,0,0,26.18,79.124,65.34,226,1
2026-07-18T17:37:02.276Z,3372,360,18248,2106,25,-296,4340,456,15956,149,123,0,26.17,79.10600000000001,65.34,225,1
2026-07-18T17:37:02.887Z,14916,-14420,16780,4038,32767,2272,9824,212,22584,2146,-11107,2000,26.17,79.10600000000001,65.33,225,1
2026-07-18T17:37:03.240Z,5616,1024,15460,-368,4601,-1315,3232,3232,16572,-1944,-194,223,26.2,79.16,65.33,225,1
2026-07-18T17:37:03.721Z,776,2300,24624,105,-291,-903,,,,,,,26.18,79.124,65.33,226,1
2026-07-18T17:37:03.839Z,,,,,,,0,0,0,0,0,0,26.14,79.05199999999999,65.4,225,1
2026-07-18T17:37:04.021Z,,,,,,,7516,-9256,1488,-6464,2847,-15524,26.13,79.03399999999999,65.42,225,1
2026-07-18T17:37:04.076Z,0,0,0,0,0,0,6352,652,16168,-1137,-62,1637,26.12,79.016,65.38,226,1
2026-07-18T17:37:04.270Z,4920,1296,17672,1923,192,-546,5416,1576,15648,-35,251,-251,26.13,79.03399999999999,65.37,225,1
2026-07-18T17:37:04.377Z,,,,,,,5900,-1092,8328,-3008,-3880,-15314,26.1,78.98,65.35,223,1
2026-07-18T17:37:04.499Z,0,0,0,0,0,0,3348,264,16740,392,1813,-1270,26.1,78.98,65.33,227,1
2026-07-18T17:37:04.676Z,3324,-728,16900,1999,-58,-251,3976,-600,14764,127,-110,66,26.1,78.98,65.35,226,1
2026-07-18T17:37:04.922Z,3252,800,17432,2035,-15,-330,4288,780,15504,138,187,-19,26.09,78.962,65.37,225,1
2026-07-18T17:37:05.102Z,5768,6316,5140,2572,-10094,-700,7928,1556,4152,1735,355,139,26.09,78.962,65.39,223,1
2026-07-18T17:37:05.337Z,7800,3532,304,2121,-4980,-1398,5092,3044,11700,1033,-4114,-1100,26.06,78.908,65.42,232,1
2026-07-18T17:37:05.456Z,5880,2748,10000,1749,-10842,-878,3332,1748,18996,230,4040,-1236,26.05,78.89,65.39,226,1
2026-07-18T17:37:05.639Z,-1528,-792,21548,-954,-2550,-2533,,,,,,,26.05,78.89,65.36,223,1
2026-07-18T17:37:05.771Z,-6568,-5552,20156,993,-10313,-1,0,0,0,0,0,0,26.03,78.854,65.29,223,1
2026-07-18T17:37:06.004Z,-444,-1092,18564,2780,-4406,-2343,1764,-472,16372,350,-2635,-904,26.05,78.89,65.29,225,1
2026-07-18T17:37:06.122Z,14580,8004,-3576,-2378,-402,-2844,4276,4996,8292,-3016,5340,-2284,26.02,78.836,65.27,223,1
2026-07-18T17:37:06.421Z,2180,596,19668,1821,-1354,-115,5104,124,15272,81,-12,68,25.99,78.782,65.42,226,1
2026-07-18T17:37:06.598Z,3572,620,17584,2005,-41,-352,4388,764,15420,77,71,-54,25.98,78.764,65.5,225,1
2026-07-18T17:37:06.722Z,25972,-6268,24692,-1268,11258,2289,19152,-1760,23972,-1834,4184,562,25.98,78.764,65.57,223,1
2026-07-18T17:37:07.271Z,-8124,3320,32767,4960,-16453,-2262,6860,-132,24008,729,-10423,-1665,25.99,78.782,65.58,226,1
2026-07-18T17:37:07.557Z,9924,7240,-6360,4097,5077,-602,5472,5072,4616,986,-660,870,25.99,78.782,65.6,223,1
2026-07-18T17:37:07.754Z,11512,828,21044,14,821,-2025,12388,4644,11976,-2521,3951,-1000,25.99,78.782,65.62,226,1
2026-07-18T17:37:08.276Z,860,-5264,13388,4,-1007,-1899,-1796,-2180,16632,-727,-4556,-1104,25.99,78.782,65.66,225,1
2026-07-18T17:37:08.640Z,-10300,-2720,29564,3825,5877,-2094,,,,,,,25.98,78.764,65.72,226,1
2026-07-18T17:37:08.876Z,2304,-2136,14872,1742,1335,64,,,,,,,25.96,78.72800000000001,65.76,226,1
2026-07-18T17:37:09.071Z,2816,480,18708,2207,158,-552,0,0,0,0,0,0,25.96,78.72800000000001,65.77,226,1
2026-07-18T17:37:09.601Z,,,,,,,-3932,4556,14896,-4882,-6239,-3298,25.94,78.69200000000001,65.83,227,1
2026-07-18T17:37:09.900Z,0,0,0,0,0,0,396,-3104,12120,391,4288,440,25.96,78.72800000000001,65.86,227,1
2026-07-18T17:37:10.199Z,4056,4272,8260,1585,3199,1025,3207,-1,-1,-1,-1,-1,25.94,78.69200000000001,65.87,228,1
2026-07-18T17:37:10.322Z,21320,672,13708,-7015,19383,2992,,,,,,,25.96,78.72800000000001,65.9,226,1
2026-07-18T17:37:10.437Z,-2144,504,17716,1397,-4821,669,0,0,0,0,0,0,25.94,78.69200000000001,65.92,227,1
2026-07-18T17:37:10.857Z,10412,12372,-7256,545,-25508,-3160,9296,3360,9328,490,-11715,-3107,25.95,78.71,65.94,227,1
2026-07-18T17:37:11.098Z,1924,-6672,13488,1591,-60,-2693,7972,-5052,4424,-303,-3033,-1385,25.95,78.71,65.97,225,1
2026-07-18T17:37:11.222Z,2632,-6684,22840,3977,-482,623,4752,-8792,17104,1498,3603,-682,25.95,78.71,65.97,228,1
2026-07-18T17:37:11.340Z,-7908,-2348,32767,-196,12796,-2168,6284,-1104,20836,-971,2659,-341,25.94,78.69200000000001,66.01,226,1
2026-07-18T17:37:11.639Z,208,-1780,21680,4198,-6340,-442,2304,-1620,15576,2363,-5376,898,25.94,78.69200000000001,66.01,226,1
2026-07-18T17:37:11.819Z,1672,6132,11480,-79,-2992,-268,4836,2164,12196,-705,-2152,-536,25.95,78.71,66.01,227,1
2026-07-18T17:37:12.057Z,0,0,0,0,0,0,11904,-8568,22752,3104,5866,-17760,25.91,78.638,65.97,230,1
2026-07-18T17:37:12.298Z,-19488,2556,14620,25,-19152,2904,352,-2624,7208,-783,1338,2070,25.9,78.62,65.87,225,1
2026-07-18T17:37:12.476Z,3040,68,22616,3572,-1368,-1100,4956,388,18508,1694,-3137,-490,25.9,78.62,65.84,227,1
2026-07-18T17:37:12.599Z,3572,624,17708,1993,314,-211,4516,768,15564,108,286,45,25.87,78.566,65.81,227,1
2026-07-18T17:37:12.722Z,15871,-1,-1,-1,-1,-1,14956,656,20064,3157,-8632,-626,25.88,78.584,65.8,225,1
2026-07-18T17:37:13.077Z,-5680,4368,25264,343,3514,183,-820,1640,22892,-1921,1828,574,25.86,78.548,65.76,227,1
2026-07-18T17:37:13.377Z,2380,-4168,32564,2201,3577,-2771,6828,200,22508,-160,657,-1400,25.87,78.566,65.75,226,1
2026-07-18T17:37:13.500Z,15460,-3256,18172,3521,11619,-2230,14148,-1928,14408,1379,2314,-2506,25.81,78.458,65.72,226,1
2026-07-18T17:37:13.738Z,2916,460,22128,1413,-1307,-980,5928,120,17916,-390,-567,-740,25.79,78.422,65.71,225,1
2026-07-18T17:37:13.987Z,-1348,-4740,23976,1788,-844,-11804,440,-880,17280,-834,-2106,-11616,25.76,78.368,65.71,225,1
2026-07-18T17:37:14.221Z,-1060,3372,5020,-2470,-15709,-12907,3560,5212,9356,-5954,-11257,-12864,25.77,78.386,65.72,226,1
2026-07-18T17:37:14.455Z,,,,,,,6960,-3904,-2680,-1584,-2856,-14928,25.77,78.386,65.72,227,1
2026-07-18T17:37:14.758Z,0,0,0,0,0,0,4560,-1232,14684,-5,127,-508,25.73,78.314,65.75,228,1
2026-07-18T17:37:15.057Z,,,,,,,14160,1588,17676,2837,-5988,482,25.73,78.314,65.76,251,1
2026-07-18T17:37:15.357Z,0,0,0,0,0,0,10968,-7480,7364,2912,15580,-2248,25.75,78.35,65.76,226,1
2026-07-18T17:37:15.658Z,,,,,,,2808,1992,16760,-1,-1,-1,25.75,78.35,65.76,226,1
2026-07-18T17:37:15.776Z,0,0,0,0,0,0,-6224,-6640,32767,2359,-13649,-1818,25.75,78.35,65.78,223,1
2026-07-18T17:37:16.138Z,,,,,,,4188,-384,19728,-207,-2330,519,25.73,78.314,65.79,225,1
2026-07-18T17:37:16.497Z,0,0,0,0,0,0,4464,1536,15584,233,-136,-258,25.72,78.29599999999999,65.81,225,1
2026-07-18T17:37:16.976Z,3812,1312,17676,1940,45,-372,4556,1380,15752,53,56,-74,25.7,78.25999999999999,65.82,225,1
2026-07-18T17:37:17.520Z,,,,,,,-4236,6564,22808,-2045,-4101,-16556,25.7,78.25999999999999,65.83,223,1
2026-07-18T17:37:17.757Z,0,0,0,0,0,0,3644,-4044,9768,-4501,1180,-11234,25.72,78.29599999999999,65.83,225,1
2026-07-18T17:37:17.940Z,6516,-4084,7772,-4584,6328,-12251,-1312,-3668,12448,-6862,-3739,-10953,25.73,78.314,65.85,226,1
2026-07-18T17:37:18.178Z,,,,,,,4512,-1296,14624,-49,261,21,25.68,78.224,65.9,228,1
2026-07-18T17:37:18.241Z,0,0,0,0,0,0,-2044,3360,31436,1212,-4670,-22,25.68,78.224,65.95,227,1
2026-07-18T17:37:18.540Z,15156,736,3968,-6998,15371,-1901,7004,-524,9804,-8239,12664,-2319,25.69,78.242,65.97,226,1
2026-07-18T17:37:18.722Z,6264,1728,11700,3630,5040,-2529,2892,1548,16688,1038,2116,-1828,25.68,78.224,65.97,226,1
2026-07-18T17:37:18.855Z,12048,7760,-856,-4891,-3108,68,13456,508,-256,-4760,-2279,-568,25.68,78.224,66,225,1
2026-07-18T17:37:18.904Z,5792,4004,15232,2265,-1002,-472,3844,2356,14688,959,-1291,-256,25.65,78.17,66.01,225,1
2026-07-18T17:37:19.140Z,3660,436,17988,1956,-51,-419,4420,452,16112,42,32,-141,25.66,78.188,66.05,226,1
2026-07-18T17:37:19.321Z,-176,4500,1072,5573,-7879,20272,4656,5764,1744,5541,-3898,22201,25.65,78.17,66.15,223,1
2026-07-18T17:37:19.439Z,-104,5248,1292,1083,8187,22618,312,4580,8180,622,1160,23274,25.64,78.152,66.2,225,1
2026-07-18T17:37:19.506Z,3812,1576,16424,1973,-369,-361,,,,,,,25.64,78.152,66.23,226,1
2026-07-18T17:37:20.102Z,14692,7252,29300,2464,9706,3245,0,0,0,0,0,0,25.65,78.17,66.25,226,1
2026-07-18T17:37:20.289Z,988,-580,23756,2506,3108,-1856,3756,356,16672,588,-3586,-394,25.66,78.188,66.25,226,1
2026-07-18T17:37:20.699Z,-3808,-508,18988,510,1048,-1538,3528,1152,8444,-1276,8490,-2049,25.64,78.152,66.28,224,1
2026-07-18T17:37:21.060Z,652,-412,13308,-251,4521,-917,-513,-1,-1,-1,-1,-1,25.65,78.17,66.28,225,1
2026-07-18T17:37:21.306Z,3392,1136,17176,2009,-208,-317,4340,1104,15328,100,-15,13,25.61,78.098,66.42,226,1
2026-07-18T17:37:21.482Z,12836,420,9764,-10398,4919,-17468,14196,-6172,8028,-9762,2763,-1,25.61,78.098,66.53,225,1
2026-07-18T17:37:21.720Z,5404,1780,13528,2011,-72,-912,5908,1924,13008,177,760,-783,25.62,78.116,66.52,227,1
2026-07-18T17:37:22.023Z,4380,2168,17668,2171,121,-488,4988,2244,15692,233,187,-268,25.62,78.116,66.52,249,1
2026-07-18T17:37:22.143Z,7140,-1132,5024,4173,2005,1117,0,0,0,0,0,0,25.62,78.116,66.52,225,1
2026-07-18T17:37:22.507Z,7288,-476,19404,1670,2957,-1968,,,,,,,25.64,78.152,66.53,225,1
2026-07-18T17:37:22.624Z,7172,-1808,9760,-6742,11665,-1295,0,0,0,0,0,0,25.62,78.116,66.52,227,1
2026-07-18T17:37:22.757Z,,,,,,,-14120,6836,32767,2467,-9630,2463,25.62,78.116,66.53,230,1
2026-07-18T17:37:22.983Z,0,0,0,0,0,0,5660,1492,9968,-867,609,-2222,25.64,78.152,66.54,228,1
2026-07-18T17:37:23.164Z,5120,1876,2436,-1518,9722,-2986,,,,,,,25.64,78.152,66.54,225,1
2026-07-18T17:37:23.467Z,2164,2064,2868,232,-3505,-1065,0,0,0,0,0,0,25.64,78.152,66.54,226,1
2026-07-18T17:37:23.592Z,2296,-1564,23220,3638,-2304,-1871,3588,-1752,24164,1424,125,-1447,25.62,78.116,66.55,227,1
2026-07-18T17:37:24.006Z,-3572,4500,9188,-1481,9697,-3139,,,,,,,25.64,78.152,66.57,227,1
2026-07-18T17:37:24.661Z,10004,-1840,15860,2058,21072,-2999,0,0,0,0,0,0,25.64,78.152,66.58,225,1
2026-07-18T17:37:25.323Z,,,,,,,6516,2152,17248,-673,3526,-1917,25.59,78.062,66.71,228,1
2026-07-18T17:37:25.442Z,0,0,0,0,0,0,8012,-1724,15208,750,4186,-1594,25.61,78.098,66.75,226,1
2026-07-18T17:37:26.161Z,19696,-2948,10520,6310,20924,255,1788,340,17964,3458,11865,1249,25.59,78.062,66.85,227,1
2026-07-18T17:37:26.523Z,4792,-192,3436,2048,15324,-855,148,1552,2708,-1515,-420,349,25.57,78.026,66.92,227,1
2026-07-18T17:37:26.704Z,-5032,4256,24900,2516,-3944,936,2528,2280,15328,949,16,-446,25.61,78.098,66.94,228,1
2026-07-18T17:37:26.882Z,-6140,-3524,30356,984,1454,-5849,5680,1368,14388,-1563,-12804,-2133,25.61,78.098,66.95,227,1
2026-07-18T17:37:27.062Z,476,844,15280,790,6554,-1,-1988,3128,18687,-1,-1,-1,25.59,78.062,66.97,227,1
2026-07-18T17:37:27.191Z,92,2028,21272,810,32515,-875,,,,,,,25.59,78.062,67,227,1
2026-07-18T17:37:27.304Z,7988,1908,22176,-1416,44,1323,0,0,0,0,0,0,25.61,78.098,67.02,227,1
2026-07-18T17:37:27.439Z,11456,9828,-8828,-5177,-11159,-954,,,,,,,25.61,78.098,67.03,225,1
2026-07-18T17:37:27.782Z,4672,8540,-96,-862,-847,821,0,0,0,0,0,0,25.61,78.098,67.03,228,1
2026-07-18T17:37:28.561Z,4980,612,21872,1996,1181,358,8216,648,17624,179,1619,555,25.62,78.116,67.03,227,1
2026-07-18T17:37:28.741Z,4004,5428,1904,-185,-517,-695,,,,,,,25.61,78.098,67.04,228,1
2026-07-18T17:37:29.103Z,4280,-1416,14356,1712,-953,-795,,,,,,,25.61,78.098,67.06,228,1
2026-07-18T17:37:29.342Z,-2380,4456,25156,2935,-2558,-2322,0,0,0,0,0,0,25.61,78.098,67.08,228,1
2026-07-18T17:37:29.703Z,10044,-4444,9400,-2998,3401,-2312,9408,-2468,17976,-1555,4134,-1935,25.61,78.098,67.07,227,1
2026-07-18T17:37:29.882Z,-2908,808,15252,842,-3427,-888,1504,1128,10672,-1242,338,-618,25.61,78.098,67.11,226,1
2026-07-18T17:37:30.003Z,3112,1000,17796,1961,-50,-329,4056,948,15876,57,41,-86,25.57,78.026,67.18,227,1
2026-07-18T17:37:30.421Z,,,,,,,0,0,0,0,0,0,25.57,78.026,67.24,228,1
2026-07-18T17:37:30.542Z,0,0,0,0,0,0,0,0,0,0,0,0,25.59,78.062,67.23,227,1
2026-07-18T17:37:31.081Z,0,0,0,0,0,0,5140,-2192,16972,585,-1675,-885,25.57,78.026,67.26,228,1
2026-07-18T17:37:31.322Z,17820,972,6460,4795,-21317,3176,17788,-1120,3456,3602,-6045,3714,25.57,78.026,67.26,228,1
2026-07-18T17:37:31.742Z,,,,,,,9996,1952,10800,249,23455,-107,25.59,78.062,67.24,227,1
2026-07-18T17:37:31.921Z,0,0,0,0,0,0,15388,-936,32767,-7501,-7657,13377,25.61,78.098,67.23,225,1
2026-07-18T17:37:32.103Z,,,,,,,15492,-13176,3936,1013,3947,-1189,25.59,78.062,67.23,227,1
2026-07-18T17:37:32.345Z,0,0,0,0,0,0,11768,-1888,10860,-370,-4240,-959,25.59,78.062,67.22,234,1
2026-07-18T17:37:32.463Z,13452,6732,7588,-6379,10306,-1495,6404,4988,16148,-6806,6466,-1475,25.61,78.098,67.2,227,1
2026-07-18T17:37:32.581Z,8432,700,5656,2114,-8895,707,-1868,1424,14532,1495,-10945,1771,25.61,78.098,67.2,227,1
2026-07-18T17:37:32.940Z,-1092,2888,12960,-3632,-7107,182,8648,2808,3928,-5485,1256,943,25.59,78.062,67.2,223,1
2026-07-18T17:37:33.124Z,-32768,-7884,32767,3692,-15371,-3928,4952,-6348,12260,-1553,9810,-3954,25.57,78.026,67.28,226,1
2026-07-18T17:37:33.361Z,,,,,,,7492,2760,19064,-44,5376,-6938,25.56,78.008,67.3,225,1
2026-07-18T17:37:33.483Z,0,0,0,0,0,0,3468,1280,16516,-3828,6841,2800,25.57,78.026,67.31,223,1
2026-07-18T17:37:33.842Z,-8380,3488,13252,-404,18419,1752,-6920,-804,7924,-2579,23153,1209,25.59,78.062,67.31,225,1
2026-07-18T17:37:34.391Z,-9004,3636,14468,205,509,-22,-7324,2536,13896,-1388,-736,550,25.57,78.026,67.33,223,1
2026-07-18T17:37:34.742Z,-5056,2780,12304,2826,-4239,-204,-6492,952,11400,1262,-5326,-62,25.57,78.026,67.35,225,1
2026-07-18T17:37:34.921Z,-9156,2828,19364,1663,-7031,-618,-5320,2204,16188,296,-6217,-284,25.59,78.062,67.35,225,1
2026-07-18T17:37:35.164Z,-3248,2832,17000,1442,-10510,-1308,1652,1060,13680,324,-8252,-1299,25.57,78.026,67.4,225,1
2026-07-18T17:37:35.462Z,3668,1140,17352,2039,49,-233,4440,1192,15320,158,271,-12,25.59,78.062,67.4,223,1
2026-07-18T17:37:35.763Z,3284,960,17768,1995,19,-302,4172,940,15788,79,93,-2,25.57,78.026,67.49,225,1
2026-07-18T17:37:35.940Z,3300,1016,17568,1969,-2,-371,4104,1016,15728,81,87,-31,25.57,78.026,67.5,225,1
2026-07-18T17:37:36.183Z,3284,992,17560,1984,-47,-329,4180,1120,15620,62,67,-23,25.56,78.008,67.54,223,1
2026-07-18T17:37:36.426Z,3356,1028,17588,1990,-31,-324,4160,1124,15576,77,100,-39,25.59,78.062,67.56,230,1
2026-07-18T17:37:36.976Z,6100,-9180,19160,4849,-15476,1322,3104,168,13084,2590,-11396,1134,25.59,78.062,67.56,227,1
2026-07-18T17:37:37.090Z,-16872,1564,32336,11927,-17516,15142,-6880,7796,22336,10532,-2773,15004,25.59,78.062,67.56,223,1
2026-07-18T17:37:37.207Z,-11516,-2996,17760,3115,-12319,2665,-3044,5848,24860,1219,1100,2280,25.59,78.062,67.55,225,1
2026-07-18T17:37:37.506Z,4148,996,16340,1948,-256,-312,4692,1028,14384,92,58,18,25.61,78.098,67.55,226,1
2026-07-18T17:37:37.992Z,3348,1228,17660,1914,-146,-383,4364,1180,15800,9,142,-86,25.57,78.026,67.56,232,1
2026-07-18T17:37:38.224Z,5840,4768,16556,2783,-1029,-376,1680,1872,19276,1134,284,406,25.59,78.062,67.56,222,1
2026-07-18T17:37:38.583Z,1136,-1240,18748,3086,4056,-168,2616,332,15468,767,886,532,25.59,78.062,67.58,225,1
2026-07-18T17:37:38.712Z,-17284,-1024,32767,2677,-3785,965,4816,420,14296,404,1129,1414,25.61,78.098,67.58,225,1
2026-07-18T17:37:38.896Z,2396,2976,18300,2548,1637,-406,-408,1204,18780,710,-1239,16383,25.59,78.062,67.58,225,1
2026-07-18T17:37:39.004Z,6096,6852,8752,1145,840,828,2072,2032,17336,-161,705,-210,25.59,78.062,67.56,225,1
2026-07-18T17:37:39.243Z,,,,,,,6056,-716,11656,1476,5627,552,25.59,78.062,67.55,226,1
2026-07-18T17:37:39.544Z,0,0,0,0,0,0,796,-688,19776,887,-1,-1,25.62,78.116,67.53,223,1
2026-07-18T17:37:39.666Z,,,,,,,7348,-1396,8552,946,8312,-503,25.59,78.062,67.53,223,1
2026-07-18T17:37:39.904Z,0,0,0,0,0,0,8792,2116,16080,792,-5804,316,25.59,78.062,67.53,225,1
2026-07-18T17:37:40.024Z,8832,-1960,12920,-2809,-15285,1220,,,,,,,25.59,78.062,67.55,223,1
2026-07-18T17:37:40.146Z,-3156,2056,13280,2825,1123,-439,0,0,0,0,0,0,25.61,78.098,67.56,222,1
2026-07-18T17:37:40.443Z,-1408,-5432,30924,3559,-6068,916,5832,-1040,22576,2555,-4752,1303,25.61,78.098,67.56,223,1
2026-07-18T17:37:40.624Z,1156,2088,18140,159,-533,174,8380,480,11812,-200,2279,1425,25.57,78.026,67.56,243,1
2026-07-18T17:37:41.106Z,-2752,-192,20412,3180,352,-550,-1608,736,19356,1148,-4065,195,25.57,78.026,67.47,228,1
2026-07-18T17:37:41.224Z,6028,8848,9512,1986,-3559,-2169,,,,,,,25.57,78.026,67.44,222,1
2026-07-18T17:37:41.346Z,1356,1684,21992,1451,-1645,-28,,,,,,,25.59,78.062,67.4,225,1
2026-07-18T17:37:41.526Z,1140,2220,18768,3337,-281,-586,,,,,,,25.56,78.008,67.3,225,1
2026-07-18T17:37:41.706Z,3128,1028,11108,-998,2858,-184,0,0,0,0,0,0,25.53,77.95400000000001,67.1,222,1
2026-07-18T17:37:42.063Z,7988,6108,-200,652,13790,-1101,-2312,3124,6900,-2727,-1177,-188,25.53,77.95400000000001,67.01,223,1
2026-07-18T17:37:42.544Z,0,0,0,0,0,0,412,1496,12472,727,1977,-21,25.52,77.936,66.93,223,1
2026-07-18T17:37:42.843Z,-452,-668,19688,2950,-513,-3,708,2952,15152,866,-2155,352,25.53,77.95400000000001,66.91,226,1
2026-07-18T17:37:43.325Z,9084,8848,-1616,3340,-16638,-3222,900,5220,18260,1655,-18091,-1905,25.52,77.936,66.92,226,1
2026-07-18T17:37:43.863Z,3196,-1428,16960,3074,7927,-294,8104,-1268,7820,929,5158,-710,25.52,77.936,66.93,225,1
2026-07-18T17:37:43.987Z,13208,-3536,-7936,3852,-960,515,-7908,2948,30256,913,-4351,717,25.5,77.9,66.97,223,1
2026-07-18T17:37:44.464Z,9048,3612,-2020,4524,13089,4577,20172,-272,2604,3128,-8810,4786,25.5,77.9,67.03,225,1
2026-07-18T17:37:44.586Z,7796,1376,8548,4998,30187,2704,,,,,,,25.52,77.936,67.05,223,1
2026-07-18T17:37:45.063Z,-11536,4724,13940,2121,8120,-399,0,0,0,0,0,0,25.52,77.936,67.08,222,1
2026-07-18T17:37:45.247Z,17452,-188,10944,3513,9258,37,5984,992,22176,766,481,561,25.52,77.936,67.1,223,1
2026-07-18T17:37:45.847Z,2164,944,17332,1944,-393,-355,3932,800,14664,92,-150,-68,25.52,77.936,67.1,225,1
2026-07-18T17:37:46.443Z,2936,828,17952,1934,-143,-331,4096,840,15944,71,54,-22,25.5,77.9,67.14,225,1
2026-07-18T17:37:46.864Z,3292,784,17576,1999,-13,-369,4172,836,15604,77,98,-89,25.49,77.882,67.14,225,1
2026-07-18T17:37:47.294Z,3236,824,17548,1965,27,-363,4220,840,15636,71,66,-26,25.49,77.882,67.16,225,1
2026-07-18T17:37:47.589Z,3328,676,17628,1997,54,-313,4236,772,15552,55,109,-28,25.5,77.9,67.16,223,1
2026-07-18T17:37:47.768Z,,,,,,,7024,6208,9984,-60,-300,391,25.5,77.9,67.14,223,1
2026-07-18T17:37:48.128Z,0,0,0,0,0,0,5044,4740,25120,-3743,-8301,2733,25.5,77.9,67.14,223,1
2026-07-18T17:37:48.320Z,2156,-184,20712,1895,-393,-507,5452,-948,15508,18,349,-327,25.49,77.882,67.14,226,1
2026-07-18T17:37:48.489Z,3068,628,17660,1948,-63,-351,4080,588,15580,53,103,-59,25.49,77.882,67.17,223,1
2026-07-18T17:37:48.664Z,10516,1604,12072,-3129,16271,-246,7280,-1968,17948,-3251,2256,811,25.49,77.882,67.22,226,1
2026-07-18T17:37:48.964Z,2964,868,17852,1858,-172,-368,3996,876,15592,-12,5,-79,25.49,77.882,67.23,225,1
2026-07-18T17:37:49.145Z,-4352,-11888,20144,2058,125,-13144,,,,,,,25.5,77.9,67.28,225,1
2026-07-18T17:37:49.328Z,,,,,,,0,0,0,0,0,0,25.48,77.864,67.38,225,1
2026-07-18T17:37:49.567Z,0,0,0,0,0,0,4312,736,15652,51,179,-75,25.5,77.9,67.36,226,1
2026-07-18T17:37:49.685Z,3268,852,17532,1993,33,-324,4316,868,15580,70,160,-31,25.49,77.882,67.4,227,1
2026-07-18T17:37:49.923Z,3456,792,17664,1996,37,-313,4332,848,15596,63,104,-54,25.5,77.9,67.4,226,1
2026-07-18T17:37:50.285Z,3400,784,17600,1987,-56,-341,4316,800,15584,85,95,-57,25.48,77.864,67.44,226,1
2026-07-18T17:37:50.409Z,3480,796,17584,1947,-29,-333,4344,864,15580,69,95,-52,25.48,77.864,67.44,229,1
2026-07-18T17:37:50.534Z,6088,-612,26564,1256,19577,-1219,2848,2060,27372,-379,5207,6,25.46,77.828,67.44,226,1
2026-07-18T17:37:51.123Z,3192,748,17792,1968,-218,-370,4196,868,15732,90,-114,-91,25.45,77.81,67.46,226,1
2026-07-18T17:37:51.305Z,,,,,,,,,,,,,25.46,77.828,67.44,223,1
2026-07-18T17:37:51.968Z,0,0,0,0,0,0,0,0,0,0,0,0,25.43,77.774,67.44,225,1
2026-07-18T17:37:52.388Z,13668,-11852,5948,8191,-1,-1,-2312,-3696,10492,2114,-5799,1967,25.45,77.81,67.44,225,1
2026-07-18T17:37:52.625Z,14968,-208,2160,7419,-21137,-559,15932,1864,22300,4362,-5683,-457,25.45,77.81,67.44,224,1
2026-07-18T17:37:52.747Z,15404,-244,17620,-1296,24749,-806,-1504,2864,32504,-2610,9812,-1093,25.43,77.774,67.46,225,1
2026-07-18T17:37:53.047Z,3600,8852,-6132,-3329,-6273,-1575,4140,5572,-2540,-6010,8285,-1604,25.43,77.774,67.46,227,1
2026-07-18T17:37:53.222Z,29424,-30416,-22952,17702,29793,941,-3936,18004,-4248,4974,-601,3593,25.43,77.774,67.42,225,1
2026-07-18T17:37:53.409Z,,,,,,,5500,1400,14976,24,1386,-339,25.45,77.81,67.41,226,1
2026-07-18T17:37:53.528Z,0,0,0,0,0,0,4276,892,14964,98,38,-14,25.43,77.774,67.38,226,1
2026-07-18T17:37:54.069Z,3264,896,17768,1991,-82,-287,4236,960,15704,81,116,-33,25.42,77.756,67.36,225,1
2026-07-18T17:37:54.254Z,3268,792,17588,1952,0,-322,4300,772,15616,56,133,-70,25.42,77.756,67.35,226,1
2026-07-18T17:37:54.500Z,3336,824,17564,1999,-58,-329,4328,808,15636,57,64,-10,25.42,77.756,67.34,226,1
2026-07-18T17:37:54.794Z,3400,768,17580,2006,18,-319,4264,824,15564,65,83,-29,25.43,77.774,67.32,226,1
2026-07-18T17:37:55.147Z,3288,804,17620,1947,-7,-346,4240,856,15608,71,70,2,25.43,77.774,67.3,226,1
2026-07-18T17:37:55.386Z,3332,792,17520,1992,6,-291,4240,920,15540,39,96,-38,25.42,77.756,67.3,226,1
2026-07-18T17:37:55.746Z,3380,752,17500,1981,-14,-329,4264,860,15548,79,89,-22,25.43,77.774,67.28,226,1
2026-07-18T17:37:56.227Z,11400,-8848,5648,-7133,18885,-20930,264,-4552,6876,-11673,8363,-21956,25.43,77.774,67.27,225,1
2026-07-18T17:37:56.465Z,11308,-104,8476,3228,19578,27398,4360,2900,15004,3567,9121,28551,25.41,77.738,67.27,225,1
2026-07-18T17:37:56.602Z,3040,756,17572,1958,-113,-382,4124,852,15512,34,-1,-70,25.41,77.738,67.27,228,1
2026-07-18T17:37:57.246Z,3204,692,17588,2025,-57,-304,4232,792,15584,87,58,-16,25.39,77.702,67.28,225,1
2026-07-18T17:37:57.610Z,3288,672,17588,1964,-32,-326,4124,784,15632,37,105,-57,25.39,77.702,67.31,227,1
2026-07-18T17:37:57.969Z,13876,6896,4684,1563,5162,18355,7292,3568,14184,1776,5365,17122,25.41,77.738,67.34,225,1
2026-07-18T17:37:58.350Z,11868,-10084,14352,7994,-5185,15940,-2804,-4624,21484,6694,-11329,18363,25.39,77.702,67.31,225,1
2026-07-18T17:37:58.447Z,3440,-1344,18620,5570,-10744,22757,4540,5256,7820,6447,-8139,22643,25.38,77.684,67.33,223,1
2026-07-18T17:37:58.591Z,2712,4936,15836,1642,-1669,-696,5004,4440,14184,-241,-345,-368,25.38,77.684,67.33,225,1
2026-07-18T17:37:59.051Z,3512,2124,18396,2003,-167,-241,4768,2128,15944,145,431,-31,25.38,77.684,67.35,226,1
2026-07-18T17:37:59.706Z,4208,932,17472,1997,13,-342,4960,1076,15448,94,149,-11,25.38,77.684,67.35,225,1
2026-07-18T17:38:00.126Z,3752,756,9492,4148,69,-403,0,0,0,0,0,0,25.35,77.63,67.4,224,1
2026-07-18T17:38:00.606Z,-8348,-952,32767,2704,-2756,-2030,2888,-1688,17424,1603,2402,-2018,25.35,77.63,67.4,226,1
2026-07-18T17:38:00.852Z,,,,,,,12280,1808,-11792,2895,23206,45,25.35,77.63,67.42,225,1
2026-07-18T17:38:01.267Z,0,0,0,0,0,0,14048,1636,588,1473,976,-3363,25.31,77.55799999999999,67.42,225,1
2026-07-18T17:38:01.446Z,3632,-668,20532,2111,-1532,350,4052,-768,18692,260,-1934,639,25.3,77.54,67.47,226,1
2026-07-18T17:38:02.287Z,12784,3032,6548,1067,5492,-8181,2444,5236,21028,-2025,977,-7295,25.28,77.504,67.47,223,1
2026-07-18T17:38:02.709Z,4632,-1396,12060,-2958,12683,-14023,9640,-6700,14604,-5660,6506,-14742,25.28,77.504,67.52,222,1
2026-07-18T17:38:03.424Z,,,,,,,9120,-1196,-2752,3930,-3828,-4622,25.27,77.486,67.55,228,1
2026-07-18T17:38:03.665Z,,,,,,,11800,1916,5352,-1933,-149,-705,25.26,77.468,67.58,226,1
2026-07-18T17:38:03.676Z,0,0,0,0,0,0,9972,260,11348,3123,8587,7416,25.27,77.486,67.58,221,1
2026-07-18T17:38:03.790Z,,,,,,,808,-10844,744,-1810,10050,-21831,25.26,77.468,67.65,223,1
2026-07-18T17:38:03.908Z,,,,,,,2420,4276,15868,2371,-1487,-21977,25.26,77.468,67.67,222,1
2026-07-18T17:38:04.265Z,0,0,0,0,0,0,10364,2024,4944,-3134,-2519,-11966,25.24,77.432,67.71,225,1
2026-07-18T17:38:04.449Z,2580,12008,32767,8248,4966,-18073,,,,,,,25.23,77.414,67.75,223,1
2026-07-18T17:38:04.809Z,11052,8656,18376,-191,3036,-19875,0,0,0,0,0,0,25.24,77.432,67.77,229,1
2026-07-18T17:38:04.991Z,-5148,-13936,22344,5461,3648,-14916,8560,-12392,4600,1471,-179,-12982,25.26,77.468,67.78,223,1
2026-07-18T17:38:05.344Z,-7736,-10204,32767,10626,5910,-20010,-3864,-1428,32767,5374,-1450,-20705,25.23,77.414,67.88,223,1
2026-07-18T17:38:05.545Z,,,,,,,,,,,,,25.22,77.396,67.96,226,1
2026-07-18T17:38:06.013Z,0,0,0,0,0,0,0,0,0,0,0,0,25.2,77.36,68.08,223,1
2026-07-18T17:38:06.201Z,6952,2716,15760,1610,-2931,80,9356,2808,12520,-160,-1083,454,25.22,77.396,68.15,227,1
2026-07-18T17:38:06.444Z,7832,692,16276,2232,242,-326,8672,1028,13960,242,329,-15,25.22,77.396,68.18,226,1
2026-07-18T17:38:06.784Z,8064,512,16524,2039,375,-608,8624,908,14280,63,228,-321,25.22,77.396,68.19,226,1
2026-07-18T17:38:06.977Z,4304,464,17140,1776,131,-448,4976,592,15324,-126,177,-132,25.23,77.414,68.19,223,1
2026-07-18T17:38:07.205Z,3508,872,17492,1980,-22,-367,4484,904,15580,39,99,-74,25.2,77.36,68.21,225,1
2026-07-18T17:38:07.528Z,,,,,,,-1760,3796,30360,9626,-15769,-978,25.22,77.396,68.22,225,1
2026-07-18T17:38:07.666Z,0,0,0,0,0,0,4052,-1068,14068,134,-3164,-673,25.19,77.342,68.25,223,1
2026-07-18T17:38:07.985Z,4912,1524,16528,2500,1267,-41,4712,1252,15644,588,726,239,25.2,77.36,68.27,227,1
2026-07-18T17:38:08.586Z,3680,992,16448,2206,122,-36,4300,984,14792,245,167,244,25.23,77.414,68.25,225,1
2026-07-18T17:38:08.706Z,3952,984,17976,2004,64,-577,4828,1100,16008,31,132,-300,25.24,77.432,68.24,225,1
2026-07-18T17:38:09.305Z,3944,980,17516,1953,-111,-295,4692,1084,15408,64,-15,43,25.24,77.432,68.24,225,1
2026-07-18T17:38:09.426Z,3972,1104,17412,1968,-36,-311,4820,1024,15372,70,39,10,25.23,77.414,68.24,226,1
2026-07-18T17:38:09.829Z,3836,1064,17400,2006,-6,-328,4708,1192,15416,59,118,-72,25.23,77.414,68.23,226,1
2026-07-18T17:38:09.983Z,3804,924,17512,1981,-87,-307,4776,1108,15504,63,64,-35,25.22,77.396,68.24,225,1
2026-07-18T17:38:10.416Z,8360,-696,9572,2899,-3437,1170,3860,536,9704,952,5260,583,25.23,77.414,68.23,227,1
2026-07-18T17:38:10.751Z,10568,-744,17336,10822,-2520,-2296,,,,,,,25.23,77.414,68.19,226,1
2026-07-18T17:38:10.921Z,8492,10980,-9360,-4555,-4147,79,0,0,0,0,0,0,25.23,77.414,68.14,226,1
2026-07-18T17:38:11.288Z,-2048,-8,27216,3255,-9069,-444,7024,112,16656,1914,-2484,-25,25.24,77.432,68.03,226,1
2026-07-18T17:38:11.402Z,,,,,,,8160,296,19604,6151,-15100,-2257,25.23,77.414,67.97,227,1
2026-07-18T17:38:11.945Z,0,0,0,0,0,0,272,2028,12588,-599,-1931,213,25.23,77.414,67.93,230,1
2026-07-18T17:38:12.229Z,11176,8572,4212,-4235,21388,1727,4020,9668,21284,-6675,14445,1721,25.23,77.414,67.84,227,1
2026-07-18T17:38:12.365Z,,,,,,,2532,-1520,19444,1548,-5910,312,25.22,77.396,67.78,227,1
2026-07-18T17:38:12.547Z,0,0,0,0,0,0,11920,-592,17280,1236,-3286,977,25.22,77.396,67.72,227,1
2026-07-18T17:38:12.785Z,-1912,-412,17068,1359,-5104,155,6220,324,8528,-350,816,-208,25.22,77.396,67.72,228,1
2026-07-18T17:38:12.966Z,,,,,,,8352,2376,6204,1243,1050,594,25.22,77.396,67.72,228,1
2026-07-18T17:38:13.325Z,0,0,0,0,0,0,4316,808,15332,35,-38,-76,25.22,77.396,67.8,229,1
2026-07-18T17:38:13.506Z,3232,680,17644,2023,-42,-293,4144,780,15556,84,62,-23,25.22,77.396,67.95,229,1
2026-07-18T17:38:13.863Z,3224,780,17628,1969,-41,-315,4204,776,15556,95,72,-10,25.23,77.414,67.97,229,1
2026-07-18T17:38:14.135Z,4696,3736,27644,2820,-32768,2885,28016,300,9208,-1,-1,-1,25.2,77.36,68.07,227,1
2026-07-18T17:38:14.226Z,-25016,-4792,32767,5398,4295,7000,4776,3108,16340,1820,14185,6388,25.23,77.414,68.08,227,1
2026-07-18T17:38:14.467Z,4756,2648,28652,933,-8463,-3466,2904,1132,23352,-1752,1995,-3530,25.23,77.414,68.1,228,1
2026-07-18T17:38:14.635Z,14476,-6316,14560,3653,-831,-985,-2260,-784,21688,632,-6822,-378,25.23,77.414,68.11,230,1
2026-07-18T17:38:14.862Z,752,-3100,16256,5033,-3622,-192,5148,-1128,8248,2744,-795,128,25.22,77.396,68.16,229,1
2026-07-18T17:38:15.006Z,244,2472,17152,6275,-2743,-691,1460,-1292,11064,4845,-293,-1154,25.2,77.36,68.24,230,1
2026-07-18T17:38:15.186Z,3408,348,17716,2093,91,-420,4348,512,15548,106,77,-110,25.2,77.36,68.25,230,1
2026-07-18T17:38:15.203Z,3092,800,17640,1908,-74,-278,4096,756,15620,26,-3,34,25.2,77.36,68.28,230,1
2026-07-18T17:38:15.301Z,3464,744,17540,1926,-80,-332,4304,792,15592,85,84,-7,25.23,77.414,68.29,230,1
2026-07-18T17:38:15.604Z,13632,496,7528,-655,541,-868,,,,,,,25.19,77.342,68.32,230,1
2026-07-18T17:38:15.725Z,,,,,,,0,0,0,0,0,0,25.2,77.36,68.31,228,1
2026-07-18T17:38:15.916Z,0,0,0,0,0,0,,,,,,,25.2,77.36,68.29,229,1
2026-07-18T17:38:16.086Z,,,,,,,0,0,0,0,0,0,25.22,77.396,68.28,229,1
2026-07-18T17:38:16.206Z,0,0,0,0,0,0,4368,8044,6200,1183,-5700,180,25.22,77.396,68.25,230,1
2026-07-18T17:38:16.327Z,2900,840,17776,1928,-203,-311,4180,716,15944,103,106,5,25.2,77.36,68.22,231,1
2026-07-18T17:38:16.504Z,,,,,,,14692,3376,5736,790,5122,660,25.19,77.342,68.18,230,1
2026-07-18T17:38:16.806Z,0,0,0,0,0,0,10288,2896,1704,-1504,250,-3516,25.2,77.36,68.15,228,1
2026-07-18T17:38:16.987Z,5356,-1312,11104,5360,-7981,-1067,8624,3076,11188,3290,-4859,-1609,25.19,77.342,68.11,228,1
2026-07-18T17:38:17.441Z,,,,,,,11276,-4252,11464,-760,1343,-2386,25.17,77.30600000000001,68.07,229,1
2026-07-18T17:38:17.533Z,0,0,0,0,0,0,128,-9408,22668,105,-12696,7711,25.19,77.342,68.04,228,1
2026-07-18T17:38:17.706Z,,,,,,,,,,,,,25.16,77.288,68.03,232,1
2026-07-18T17:38:17.946Z,0,0,0,0,0,0,0,0,0,0,0,0,25.17,77.30600000000001,68.04,230,1
2026-07-18T17:38:18.128Z,8936,-5624,30272,1837,-6990,-1843,19776,-10004,16900,797,-3466,-3012,25.16,77.288,68.03,235,1
2026-07-18T17:38:18.302Z,-4272,4920,24256,823,-102,-188,2440,2672,18488,-1305,7806,-384,25.16,77.288,68.04,228,1
2026-07-18T17:38:18.428Z,9912,2748,26220,2458,6075,199,3732,3728,30640,365,-505,235,25.16,77.288,68.08,229,1
2026-07-18T17:38:18.602Z,0,0,0,0,0,0,-488,676,26200,-1714,-3904,1014,25.16,77.288,68.11,228,1
2026-07-18T17:38:18.782Z,-1740,-1344,16376,2956,1210,-1058,456,2004,13276,-117,306,1489,25.16,77.288,68.14,229,1
2026-07-18T17:38:19.099Z,540,-772,28492,-1054,3149,1710,7980,1756,18416,-3119,3435,2440,25.16,77.288,68.16,230,1
2026-07-18T17:38:19.231Z,3640,5576,17964,-1439,7162,1624,1008,19668,32767,-4739,3312,6873,25.17,77.30600000000001,68.18,229,1
2026-07-18T17:38:19.363Z,4096,3252,13288,-207,-303,587,6932,2208,15968,-1402,-1904,744,25.16,77.288,68.17,229,1
2026-07-18T17:38:19.521Z,2592,2612,6400,1125,-1765,31,6312,552,7516,-396,3337,974,25.16,77.288,68.19,229,1
2026-07-18T17:38:19.629Z,13532,-3340,10260,2239,29619,-740,-2396,-3144,17508,781,4347,-1723,25.16,77.288,68.19,228,1
2026-07-18T17:38:19.913Z,,,,,,,5316,2964,10060,1631,3203,-551,25.17,77.30600000000001,68.19,229,1
2026-07-18T17:38:20.064Z,0,0,0,0,0,0,,,,,,,25.16,77.288,68.2,228,1
2026-07-18T17:38:20.447Z,,,,,,,0,0,0,0,0,0,25.15,77.27,68.21,229,1
2026-07-18T17:38:20.766Z,0,0,0,0,0,0,-13036,736,16964,-2763,-2907,1484,25.16,77.288,68.21,228,1
2026-07-18T17:38:20.886Z,6908,1752,4440,3033,-1197,-1821,1972,6176,9232,952,-4337,-868,25.15,77.27,68.25,229,1
2026-07-18T17:38:21.209Z,2108,-216,7412,1026,4404,-727,3796,712,3564,-915,2530,-446,25.15,77.27,68.27,228,1
2026-07-18T17:38:21.362Z,2392,616,16344,1906,-96,-287,3712,536,14112,32,270,-72,25.15,77.27,68.25,229,1
2026-07-18T17:38:21.947Z,-3952,660,15100,1207,4296,812,776,-1872,7036,-487,-3214,473,25.13,77.234,68.24,229,1
2026-07-18T17:38:22.084Z,-14480,-10308,32767,1064,5200,1636,,,,,,,25.13,77.234,68.23,228,1
2026-07-18T17:38:22.237Z,4360,132,18012,2286,-3040,686,,,,,,,25.15,77.27,68.24,228,1
2026-07-18T17:38:22.574Z,4796,592,11000,3039,2566,266,0,0,0,0,0,0,25.16,77.288,68.23,229,1
2026-07-18T17:38:22.750Z,3584,-6244,19644,574,16326,165,,,,,,,25.16,77.288,68.23,227,1
2026-07-18T17:38:23.042Z,,,,,,,,,,,,,25.16,77.288,68.24,231,1
2026-07-18T17:38:23.220Z,,,,,,,0,0,0,0,0,0,25.13,77.234,68.27,230,1
2026-07-18T17:38:23.466Z,0,0,0,0,0,0,8224,1536,8068,886,570,780,25.13,77.234,68.29,229,1
2026-07-18T17:38:24.071Z,4544,-484,17328,2615,-8018,-966,2680,1888,16456,654,-460,1221,25.13,77.234,68.29,228,1
2026-07-18T17:38:24.185Z,,,,,,,,,,,,,25.13,77.234,68.3,228,1
2026-07-18T17:38:24.442Z,0,0,0,0,0,0,0,0,0,0,0,0,25.15,77.27,68.3,229,1
2026-07-18T17:38:24.566Z,8800,5500,10952,-1112,-3471,-1520,11016,1604,2424,-2596,-5166,-677,25.13,77.234,68.33,228,1
2026-07-18T17:38:25.029Z,8284,1336,7840,2606,4642,408,6744,2616,12184,516,979,-222,25.15,77.27,68.33,230,1
2026-07-18T17:38:25.328Z,-128,5016,16328,716,-1672,-1010,3304,3064,13688,-687,1794,698,25.13,77.234,68.35,227,1
2026-07-18T17:38:25.515Z,13980,11552,-2084,4749,-29358,2365,10548,1556,14988,3906,-11771,2516,25.13,77.234,68.39,228,1
2026-07-18T17:38:25.725Z,13216,2624,23504,12884,23802,-1174,13624,-9936,5300,10017,7294,-3722,25.15,77.27,68.39,228,1
2026-07-18T17:38:25.922Z,6888,5196,7560,3137,-8164,-390,3736,1712,13960,1764,-3787,-884,25.13,77.234,68.4,228,1
2026-07-18T17:38:26.351Z,7472,-476,11324,438,-1896,-1975,7112,-1704,10304,-1136,-125,-2744,25.15,77.27,68.4,229,1
2026-07-18T17:38:26.825Z,,,,,,,,,,,,,25.13,77.234,68.43,230,1
2026-07-18T17:38:27.007Z,0,0,0,0,0,0,0,0,0,0,0,0,25.15,77.27,68.43,229,1
2026-07-18T17:38:27.402Z,4576,1140,12484,-757,13,-1262,13148,216,3976,-1945,1680,-765,25.13,77.234,68.43,229,1
2026-07-18T17:38:27.766Z,,,,,,,-3972,6932,21548,3112,-5818,-15,25.12,77.21600000000001,68.44,252,1
2026-07-18T17:38:27.885Z,0,0,0,0,0,0,6052,-3788,2808,-723,2164,-770,25.12,77.21600000000001,68.46,229,1
2026-07-18T17:38:28.145Z,-7236,4896,15336,1444,15368,10731,-8296,2484,25636,97,5808,11316,25.11,77.19800000000001,68.47,233,1
2026-07-18T17:38:28.335Z,4216,4024,17888,1956,760,-997,5708,2016,12908,270,-987,-458,25.11,77.19800000000001,68.47,229,1
2026-07-18T17:38:28.568Z,,,,,,,0,0,0,0,0,0,25.11,77.19800000000001,68.49,229,1
2026-07-18T17:38:28.722Z,0,0,0,0,0,0,-2548,-1544,3920,-9943,-2427,-23335,25.08,77.14399999999999,68.43,230,1
2026-07-18T17:38:28.884Z,-1060,-1140,28024,3097,-9123,-635,6708,936,17232,828,-3491,416,25.11,77.19800000000001,68.41,229,1
2026-07-18T17:38:29.044Z,-1704,1152,16324,2818,-2036,102,8472,432,7588,1387,5677,-1121,25.09,77.162,68.4,229,1
2026-07-18T17:38:29.340Z,4360,-328,13192,1450,-3745,-529,4668,-432,9416,-7,3251,-1388,25.12,77.21600000000001,68.39,229,1
2026-07-18T17:38:29.586Z,7152,4856,9312,2134,-3064,1219,4000,3584,13672,218,2700,418,25.09,77.162,68.4,229,1
2026-07-18T17:38:29.793Z,4268,-916,17428,1415,140,318,10972,-1368,10848,-121,-1875,243,25.11,77.19800000000001,68.38,229,1
2026-07-18T17:38:30.148Z,,,,,,,6824,1268,18384,1236,5893,-560,25.11,77.19800000000001,68.38,229,1
2026-07-18T17:38:30.365Z,0,0,0,0,0,0,4452,-1172,10196,357,4125,-1408,25.11,77.19800000000001,68.36,228,1
2026-07-18T17:38:30.640Z,7776,2124,11756,3464,8708,147,4192,2028,12060,1733,4448,-545,25.09,77.162,68.4,230,1
2026-07-18T17:38:30.799Z,-32768,15564,32767,6902,15304,9257,9748,-4252,24844,3031,10697,8546,25.08,77.14399999999999,68.49,228,1
2026-07-18T17:38:30.981Z,-15020,-6104,32767,552,9903,9738,-3944,-1900,32767,1103,-2131,10747,25.08,77.14399999999999,68.58,285,1
2026-07-18T17:38:31.266Z,,,,,,,-448,6636,952,-4855,-4006,4507,25.09,77.162,68.58,228,1
2026-07-18T17:38:31.385Z,0,0,0,0,0,0,9964,-4200,21952,89,670,885,25.08,77.14399999999999,68.61,229,1
2026-07-18T17:38:31.536Z,-3704,6192,20644,5989,8789,8614,,,,,,,25.06,77.108,68.66,230,1
2026-07-18T17:38:31.626Z,3420,-3968,17632,5668,-3480,1952,,,,,,,25.09,77.162,68.68,229,1
2026-07-18T17:38:31.764Z,9452,-2344,6324,2268,28976,2459,0,0,0,0,0,0,25.06,77.108,68.74,229,1
2026-07-18T17:38:31.997Z,,,,,,,10948,7332,8424,-7391,16282,4014,25.06,77.108,68.77,233,1
2026-07-18T17:38:32.377Z,0,0,0,0,0,0,-2140,-284,28072,259,4251,5548,25.05,77.09,68.79,229,1
2026-07-18T17:38:32.585Z,,,,,,,1568,600,17048,198,-1106,130,25.05,77.09,68.8,229,1
2026-07-18T17:38:32.779Z,0,0,0,0,0,0,3280,-812,13316,899,2228,-596,25.05,77.09,68.82,228,1
2026-07-18T17:38:33.245Z,5604,1036,13692,3455,1125,-244,6864,152,12528,1564,-2108,377,25.06,77.108,68.85,231,1
2026-07-18T17:38:33.793Z,8592,8612,14192,14862,-13304,-2259,4204,1216,32424,10977,-13364,-896,25.05,77.09,68.87,229,1
2026-07-18T17:38:34.084Z,9900,4132,3556,-1466,-1035,1397,1304,4436,14924,-2932,-1831,2699,25.04,77.072,68.88,229,1
2026-07-18T17:38:34.270Z,7592,1600,12908,3225,5517,548,2540,776,16500,917,3430,38,25.04,77.072,68.91,228,1
2026-07-18T17:38:34.565Z,5084,556,14948,1644,118,-134,4172,792,18432,609,-1394,-328,25.02,77.036,68.96,228,1
2026-07-18T17:38:34.885Z,32767,5748,-12804,4402,3815,3260,-16396,6144,31208,1305,-12158,906,25.04,77.072,68.96,228,1
2026-07-18T17:38:35.066Z,428,-2580,22452,2176,-2699,25,1644,-536,19452,603,-3150,-597,25.02,77.036,68.97,229,1
2026-07-18T17:38:35.177Z,13904,356,13504,1644,-7469,-868,,,,,,,25.04,77.072,68.99,229,1
2026-07-18T17:38:35.544Z,-2896,-5308,21476,4957,-9630,-2760,0,0,0,0,0,0,25.04,77.072,68.99,229,1
2026-07-18T17:38:35.887Z,,,,,,,17984,4888,10148,-4594,13888,-1026,25.02,77.036,68.99,231,1
2026-07-18T17:38:36.064Z,0,0,0,0,0,0,6472,-1032,19660,1377,233,1469,25.04,77.072,68.99,231,1
2026-07-18T17:38:37.113Z,2188,-1696,7444,4084,-12343,-124,2284,-1656,7344,2245,-14359,1308,25.06,77.108,68.98,229,1
2026-07-18T17:38:37.391Z,,,,,,,6292,-5408,18012,8985,-9278,-3814,25.05,77.09,68.97,229,1
2026-07-18T17:38:37.568Z,0,0,0,0,0,0,,,,,,,25.05,77.09,68.97,229,1
2026-07-18T17:38:37.745Z,15640,8944,-120,-3324,-1918,-2479,0,0,0,0,0,0,25.04,77.072,68.99,229,1
2026-07-18T17:38:37.881Z,,,,,,,-1744,-4528,20956,-2095,-4728,3240,25.02,77.036,69.03,230,1
2026-07-18T17:38:38.062Z,0,0,0,0,0,0,2836,5648,3168,-5648,4134,-556,25.01,77.018,69.04,230,1
2026-07-18T17:38:38.297Z,,,,,,,27912,5464,2120,-3578,4508,-1653,25.02,77.036,69.05,230,1
2026-07-18T17:38:38.591Z,0,0,0,0,0,0,5524,1704,14580,-133,2295,-29,24.97,76.946,69.1,229,1
2026-07-18T17:38:38.700Z,3920,-196,19721,13035,-30719,23808,6984,-1048,14964,2105,-3728,-176,24.98,76.964,69.15,229,1
2026-07-18T17:38:38.825Z,6628,6460,-9060,-148,-14346,-2424,8828,9684,6860,-2509,-12023,-954,24.97,76.946,69.17,270,1
2026-07-18T17:38:39.065Z,2708,1536,13584,736,-5349,761,10624,768,7696,-975,3002,1099,24.98,76.964,69.17,229,1
2026-07-18T17:38:39.310Z,80,1436,7320,1933,4228,6,744,-180,8468,455,-7495,896,24.97,76.946,69.19,229,1
2026-07-18T17:38:39.561Z,1248,1112,13952,2464,2777,-678,3804,1768,13900,153,2362,491,24.96,76.928,69.21,228,1
2026-07-18T17:38:40.093Z,14716,3484,12096,-2028,-1548,-1161,12612,-212,12408,-2470,-9576,-1617,24.96,76.928,69.23,237,1
2026-07-18T17:38:40.348Z,-3276,-9240,32767,18400,-12292,-2472,8836,64,15076,12739,-1760,-3022,24.97,76.946,69.21,230,1
2026-07-18T17:38:40.625Z,,,,,,,,,,,,,24.96,76.928,69.26,229,1
2026-07-18T17:38:40.951Z,,,,,,,0,0,0,0,0,0,24.94,76.892,69.27,234,1
2026-07-18T17:38:41.167Z,0,0,0,0,0,0,-6296,592,7936,2224,-3991,-107,24.96,76.928,69.29,229,1
2026-07-18T17:38:41.332Z,18232,3788,25592,9776,-5201,-1502,-1472,1604,32767,8838,-9857,-1980,24.94,76.892,69.39,229,1
2026-07-18T17:38:41.402Z,1560,204,18036,4076,13557,119,10892,1600,7500,991,16175,568,24.96,76.928,69.4,228,1
2026-07-18T17:38:41.598Z,5148,1964,11276,1154,939,-1290,2240,2008,12628,-804,-401,-963,24.96,76.928,69.38,229,1
2026-07-18T17:38:42.064Z,4288,652,17032,2063,296,-348,5268,760,14880,80,308,-123,24.97,76.946,69.35,229,1
2026-07-18T17:38:42.784Z,4040,1224,17692,1938,313,-488,4936,1220,15768,29,195,-189,24.97,76.946,69.34,230,1
2026-07-18T17:38:43.311Z,4172,1080,17432,1966,-41,-302,5048,1040,15432,81,-5,-9,24.96,76.928,69.31,229,1
2026-07-18T17:38:43.507Z,3872,984,17540,2007,55,-336,4876,1124,15508,90,109,12,24.96,76.928,69.29,230,1
2026-07-18T17:38:43.719Z,3964,1076,17564,2001,-17,-345,4900,1084,15524,94,111,-48,24.96,76.928,69.28,230,1
2026-07-18T17:38:44.001Z,12992,-332,25072,5014,11138,-1988,21200,-620,14348,1092,-10516,116,24.98,76.964,69.27,229,1
2026-07-18T17:38:44.304Z,,,,,,,4300,-468,19672,1317,-6883,1295,24.97,76.946,69.27,229,1
2026-07-18T17:38:44.407Z,0,0,0,0,0,0,-6508,-736,32767,13868,-1586,-700,24.97,76.946,69.26,230,1
2026-07-18T17:38:44.583Z,9296,488,18416,1667,11347,-1801,264,1852,24740,128,-4568,-1151,24.97,76.946,69.26,229,1
2026-07-18T17:38:44.824Z,5784,5020,12368,-2084,4127,-1469,0,0,0,0,0,0,24.97,76.946,69.27,231,1
2026-07-18T17:38:44.946Z,6576,-7508,18068,4043,7631,-2625,2360,1976,18996,-931,3441,-1883,24.96,76.928,69.33,245,1
2026-07-18T17:38:45.064Z,18908,6544,9192,-375,-5097,-656,-1572,2864,14788,-1120,-8844,-523,24.94,76.892,69.32,229,1
2026-07-18T17:38:45.187Z,300,-3532,22504,2955,-4367,112,6676,-2580,17288,880,1343,-509,24.96,76.928,69.34,231,1
2026-07-18T17:38:45.600Z,3768,2896,5732,-6811,5315,-489,7216,900,5156,-8124,8908,-122,24.96,76.928,69.35,229,1
2026-07-18T17:38:45.843Z,,,,,,,4388,-2488,18428,2075,1621,6081,24.94,76.892,69.36,230,1
2026-07-18T17:38:46.024Z,0,0,0,0,0,0,-12088,1472,18312,534,-10313,199,24.96,76.928,69.37,331,1
2026-07-18T17:38:46.215Z,1152,4296,18352,1590,680,-2451,9672,3360,9804,-1188,9593,-2361,24.96,76.928,69.37,231,1
2026-07-18T17:38:46.389Z,6780,-1556,9488,-1332,-1222,-254,5012,-92,9536,-3194,-495,649,24.97,76.946,69.37,229,1
2026-07-18T17:38:46.500Z,25788,6088,21648,-7833,9588,4161,32132,-1600,22356,-6904,24591,3394,24.91,76.838,69.41,229,1
2026-07-18T17:38:46.715Z,-1324,1824,10320,2399,3218,1427,-7672,4060,13436,629,2100,273,24.86,76.748,69.47,230,1
2026-07-18T17:38:46.804Z,0,0,0,0,0,0,-744,8736,3980,381,-10211,-72,24.89,76.80199999999999,69.51,229,1
2026-07-18T17:38:46.979Z,4220,-1812,24716,1549,232,34,,,,,,,24.89,76.80199999999999,69.51,229,1
2026-07-18T17:38:47.198Z,-1424,4884,6076,-2033,-8969,-1500,0,0,0,0,0,0,24.89,76.80199999999999,69.51,229,1
2026-07-18T17:38:47.463Z,4304,-2100,20156,2466,13290,574,6276,1148,14852,511,13825,27392,24.89,76.80199999999999,69.52,228,1
2026-07-18T17:38:47.536Z,26052,-6304,10904,2664,-3807,5672,11248,2500,12344,3009,-17964,6198,24.89,76.80199999999999,69.51,232,1
2026-07-18T17:38:48.005Z,9004,5644,12240,3554,21932,2223,10152,532,9420,1221,17843,1806,24.91,76.838,69.49,228,1
2026-07-18T17:38:48.124Z,16136,-7940,10472,-5513,4879,2561,10032,3412,9332,-7987,10930,1929,24.9,76.82,69.43,236,1
2026-07-18T17:38:48.250Z,11992,-8204,32767,2887,-2535,4572,-1540,-9424,32767,3530,-2324,5704,24.89,76.80199999999999,69.38,243,1
2026-07-18T17:38:48.482Z,3672,1440,15404,2547,1619,-1318,3724,-396,14576,523,903,-1281,24.9,76.82,69.36,228,1
2026-07-18T17:38:48.716Z,16536,-20224,20080,2692,15291,1367,,,,,,,24.9,76.82,69.35,229,1
2026-07-18T17:38:48.946Z,-9812,4536,29200,22,-11031,-1320,,,,,,,24.9,76.82,69.33,229,1
2026-07-18T17:38:49.260Z,2208,1976,17944,2968,-3518,-506,0,0,0,0,0,0,24.89,76.80199999999999,69.33,229,1
2026-07-18T17:38:49.624Z,136,-720,20356,324,-567,189,4996,-648,12868,-599,-2381,-1,24.9,76.82,69.35,228,1
2026-07-18T17:38:49.865Z,14972,-5460,11608,4701,-3602,15,7504,-4552,21124,2298,2306,-99,24.9,76.82,69.35,229,1
2026-07-18T17:38:50.208Z,8984,1512,20168,964,2633,1633,0,0,0,0,0,0,24.9,76.82,69.36,229,1
2026-07-18T17:38:50.299Z,,,,,,,,,,,,,24.9,76.82,69.36,229,1
2026-07-18T17:38:50.675Z,,,,,,,0,0,0,0,0,0,24.91,76.838,69.35,229,1
2026-07-18T17:38:50.895Z,,,,,,,2420,-1668,18712,638,-1939,-1,24.91,76.838,69.33,228,1
2026-07-18T17:38:51.424Z,0,0,0,0,0,0,,,,,,,24.91,76.838,69.32,228,1
2026-07-18T17:38:51.666Z,3280,956,13544,207,-7461,-403,0,0,0,0,0,0,24.91,76.838,69.29,229,1
2026-07-18T17:38:51.965Z,-2232,744,20272,1460,-25,627,1252,2216,14224,-801,-384,2377,24.91,76.838,69.27,229,1
2026-07-18T17:38:52.201Z,12364,2096,-4792,1198,-14151,2804,16240,-284,660,452,4270,2871,24.9,76.82,69.26,229,1
2026-07-18T17:38:52.448Z,3648,764,17560,2059,-455,-401,4532,956,15300,87,-155,-143,24.93,76.874,69.25,232,1
2026-07-18T17:38:52.805Z,4656,2420,23900,1410,10347,-403,9764,3124,22468,-663,2357,-971,24.91,76.838,69.26,231,1
2026-07-18T17:38:52.922Z,7332,-1540,17460,1969,450,-1286,,,,,,,24.91,76.838,69.25,229,1
2026-07-18T17:38:53.224Z,-15208,-8380,32767,3540,-20073,-3976,0,0,0,0,0,0,24.91,76.838,69.25,229,1
2026-07-18T17:38:53.364Z,,,,,,,1972,-1760,23464,1401,-7778,9052,24.91,76.838,69.25,230,1
2026-07-18T17:38:53.530Z,0,0,0,0,0,0,-29316,2348,32767,6514,-193,1520,24.91,76.838,69.25,230,1
2026-07-18T17:38:53.964Z,3556,708,17192,1293,-354,372,4780,596,15056,-560,307,766,24.91,76.838,69.26,229,1
2026-07-18T17:38:54.250Z,3336,776,17612,1945,-18,-287,4368,780,15584,34,36,14,24.9,76.82,69.29,229,1
2026-07-18T17:38:54.413Z,14660,-3956,14920,5586,7112,20913,,,,,,,24.9,76.82,69.32,228,1
2026-07-18T17:38:54.762Z,1464,4804,13300,1792,6375,19912,0,0,0,0,0,0,24.9,76.82,69.33,227,1
2026-07-18T17:38:55.059Z,-6028,4388,13356,4741,-14560,21172,5072,2688,5596,4678,-5314,23048,24.89,76.80199999999999,69.33,228,1
2026-07-18T17:38:55.805Z,3284,-716,18948,7687,-3590,17250,9520,2272,11784,5833,-4045,17929,24.91,76.838,69.33,228,1
2026-07-18T17:38:56.044Z,24808,-3892,17228,2095,28637,22217,8116,-7324,31848,3653,-8795,20399,24.89,76.80199999999999,69.34,228,1
2026-07-18T17:38:56.587Z,3440,1320,17328,1998,187,-331,4248,1360,15472,47,183,-22,24.9,76.82,69.35,229,1
2026-07-18T17:38:56.765Z,3500,968,17420,2023,-14,-370,4340,964,15540,76,-13,-72,24.89,76.80199999999999,69.38,228,1
2026-07-18T17:38:56.885Z,3892,1652,18856,1055,4527,-941,,,,,,,24.9,76.82,69.39,228,1
2026-07-18T17:38:57.244Z,-11844,16712,32767,19906,-2711,-4817,0,0,0,0,0,0,24.9,76.82,69.39,228,1
2026-07-18T17:38:57.907Z,,,,,,,1740,5856,15176,7410,-7027,17481,24.91,76.838,69.37,229,1
2026-07-18T17:38:58.385Z,0,0,0,0,0,0,5416,292,14988,248,449,129,24.9,76.82,69.37,227,1
2026-07-18T17:38:58.626Z,20612,13520,17908,3782,22477,4138,8604,16120,32767,-1321,22947,2535,24.9,76.82,69.39,227,1
2026-07-18T17:38:59.024Z,,,,,,,8928,1880,12416,961,-2197,313,24.91,76.838,69.39,228,1
2026-07-18T17:38:59.166Z,0,0,0,0,0,0,11044,3804,11508,-4918,4552,-1310,24.91,76.838,69.39,230,1
2026-07-18T17:38:59.329Z,6556,1156,3636,1580,62,-907,,,,,,,24.93,76.874,69.39,229,1
2026-07-18T17:38:59.705Z,-1604,-3008,17596,791,-21426,5417,0,0,0,0,0,0,24.91,76.838,69.39,229,1
2026-07-18T17:38:59.885Z,7464,-524,14728,567,-5016,-1423,16196,860,15172,-1657,-2006,-23,24.9,76.82,69.41,228,1
2026-07-18T17:39:00.392Z,-32768,7468,32767,-507,-22325,-1870,,,,,,,24.89,76.80199999999999,69.38,228,1
2026-07-18T17:39:00.674Z,,,,,,,0,0,0,0,0,0,24.9,76.82,69.37,264,1
2026-07-18T17:39:00.852Z,0,0,0,0,0,0,6356,1312,21512,-1902,3569,-3239,24.86,76.748,69.34,227,1
2026-07-18T17:39:00.964Z,-448,4988,8680,-751,-8328,664,-644,4104,22048,-2300,-13228,2023,24.85,76.73,69.33,227,1
2026-07-18T17:39:01.094Z,4340,1476,17304,2219,-1854,-42,4440,1312,15916,461,-615,426,24.84,76.712,69.45,233,1
2026-07-18T17:39:01.302Z,3332,-3452,2392,-7738,-2458,-16121,4360,-2796,5460,-10213,5090,-15824,24.84,76.712,69.51,228,1
2026-07-18T17:39:01.486Z,3808,2808,16716,1258,1802,167,5124,2120,15280,-751,733,348,24.84,76.712,69.55,228,1
2026-07-18T17:39:01.748Z,15144,-6472,9064,6412,-8084,7061,-5244,-724,32767,3096,2116,7048,24.84,76.712,69.54,226,1
2026-07-18T17:39:01.985Z,536,4104,23108,3511,-2337,287,-1464,1848,24932,2328,-7871,-371,24.84,76.712,69.55,228,1
2026-07-18T17:39:02.227Z,10528,7072,22912,4826,-17180,347,-15780,6684,32767,4503,-21285,1273,24.85,76.73,69.57,246,1
2026-07-18T17:39:02.344Z,-332,-7564,11848,1799,2156,1710,-9052,-116,15652,710,-13544,2396,24.82,76.676,69.63,227,1
2026-07-18T17:39:02.471Z,4800,-1276,12688,5464,6051,9584,1796,7204,17860,2911,2985,10403,24.82,76.676,69.7,228,1
2026-07-18T17:39:02.765Z,2796,3140,12844,2000,18112,2248,10412,4752,13752,-2343,7012,3476,24.84,76.712,69.72,227,1
2026-07-18T17:39:03.026Z,24084,2296,15400,-1918,5135,1896,1512,6980,26424,-3320,4640,1096,24.85,76.73,69.75,231,1
2026-07-18T17:39:03.725Z,13728,-1500,8104,478,6875,-2223,9172,-1560,9188,-286,2802,-3188,24.85,76.73,69.75,228,1
2026-07-18T17:39:04.177Z,-3704,2768,10884,339,-11365,316,10120,-384,5980,-1081,-992,1547,24.86,76.748,69.75,227,1
2026-07-18T17:39:04.326Z,-3896,4180,14420,772,-7197,-421,3668,1720,8268,-811,2327,267,24.84,76.712,69.77,229,1
2026-07-18T17:39:04.685Z,19284,-340,12288,-1924,1876,-2413,15216,-7716,12868,-1292,-6304,-3281,24.85,76.73,69.79,230,1
2026-07-18T17:39:04.932Z,5576,816,14912,1312,-2518,560,3628,1508,17612,-121,-1816,311,24.85,76.73,69.81,229,1
2026-07-18T17:39:05.096Z,0,0,0,0,0,0,10168,5048,9488,-1764,7861,260,24.85,76.73,69.83,227,1
2026-07-18T17:39:05.341Z,1228,-2116,25012,3679,4455,-245,0,0,0,0,0,0,24.86,76.748,69.83,229,1
2026-07-18T17:39:05.777Z,-1332,2008,20004,1343,-3882,49,556,2000,18352,-23,2033,-410,24.86,76.748,69.85,228,1
2026-07-18T17:39:06.147Z,2640,1256,15216,1948,-20794,-3434,,,,,,,24.89,76.80199999999999,69.85,229,1
2026-07-18T17:39:06.490Z,5308,-1304,18924,1277,-4145,-1,0,0,0,0,0,0,24.89,76.80199999999999,69.87,228,1
2026-07-18T17:39:06.600Z,4320,-200,17688,1494,953,-856,4256,-196,16220,-300,-720,-702,24.86,76.748,69.87,227,1
2026-07-18T17:39:07.687Z,13400,7012,2044,249,2560,-15,7412,6240,18208,-1355,-457,428,24.86,76.748,69.87,228,1
2026-07-18T17:39:08.114Z,8160,-144,10892,1615,-6435,419,1452,1568,13204,-152,-2782,251,24.86,76.748,69.87,227,1
2026-07-18T17:39:08.468Z,16660,1200,-2020,21,-5485,-967,,,,,,,24.89,76.80199999999999,69.87,262,1
2026-07-18T17:39:08.766Z,-18940,-160,32767,6275,-9959,-2952,,,,,,,24.9,76.82,69.88,228,1
2026-07-18T17:39:08.944Z,5512,-16164,17604,6500,-10706,5679,0,0,0,0,0,0,24.89,76.80199999999999,69.87,228,1
2026-07-18T17:39:09.067Z,4380,-2544,15360,2454,-7338,754,-4836,2176,18180,653,-7902,1915,24.89,76.80199999999999,69.87,228,1
2026-07-18T17:39:09.365Z,5284,5392,17748,1729,10413,1969,,,,,,,24.85,76.73,69.9,227,1
2026-07-18T17:39:09.486Z,-860,-2308,18292,1554,-3123,-28,0,0,0,0,0,0,24.84,76.712,69.95,228,1
2026-07-18T17:39:09.844Z,2460,5732,19908,-438,-1462,2032,6680,2452,17204,-1635,-3525,1249,24.86,76.748,69.96,227,1
2026-07-18T17:39:10.204Z,1868,7652,8308,-2251,-3101,-352,6956,-3204,2496,-2682,2196,-1156,24.86,76.748,69.96,227,1
2026-07-18T17:39:10.446Z,1916,2832,13692,1218,-2356,960,1668,1548,12340,-822,2156,-63,24.85,76.73,69.96,229,1
2026-07-18T17:39:10.564Z,-4312,-2244,22476,14730,-24587,3100,11820,4728,2700,8737,-22178,3556,24.85,76.73,69.96,339,1